ax,ay,az,gx,gy,gz,mx,my,mz,hg_ax,hg_ay,hg_az,latitude,longitude,altitude,GPS Lock,rocketState,timeStamp
-0.9925919771194458,-0.02781599946320057,0.16909199953079224,1.2687499523162842,-2.476249933242798,1.4262499809265137,-0.15931999683380127,-0.05403999984264374,-0.3557400107383728,0.0,0.0,0.0,0.0,0.0,0.0,False,0,23
0.0,0.0,0.0,0.0,0.0,0.0,0.0,0.0,0.0,-0.00830078125,0.9853515625,0.2119140625,0.0,0.0,0.0,False,0,24
0.0,0.0,0.0,0.0,0.0,0.0,0.0,0.0,0.0,0.0,0.0,0.0,0.0,0.0,0.0,False,0,21
-0.9838079810142517,-0.013175999745726585,0.16396799683570862,1.6887500286102295,-2.4237499237060547,1.2862499952316284,-0.1624000072479248,-0.0560000017285347,-0.3652600049972534,0.0,0.0,0.0,0.0,0.0,0.0,False,0,40
0.0,0.0,0.0,0.0,0.0,0.0,0.0,0.0,0.0,-0.0146484375,0.9814453125,0.2177734375,0.0,0.0,0.0,False,0,41
0.0,0.0,0.0,0.0,0.0,0.0,0.0,0.0,0.0,0.0,0.0,0.0,0.0,0.0,0.0,False,0,38
-1.0006439685821533,-0.01756799966096878,0.17128799855709076,1.8025000095367432,-2.283750057220459,1.3562500476837158,-0.15861999988555908,-0.05852000042796135,-0.3570000231266022,0.0,0.0,0.0,0.0,0.0,0.0,False,0,58
0.0,0.0,0.0,0.0,0.0,0.0,0.0,0.0,0.0,0.01953125,1.0166015625,0.1630859375,0.0,0.0,0.0,False,0,59
0.0,0.0,0.0,0.0,0.0,0.0,0.0,0.0,0.0,0.0,0.0,0.0,0.0,0.0,0.0,False,0,56
-0.9962520003318787,-0.016835998743772507,0.16250400245189667,1.627500057220459,-2.5899999141693115,1.2862499952316284,-0.16352000832557678,-0.054740000516176224,-0.3514000177383423,0.0,0.0,0.0,0.0,0.0,0.0,False,0,75
0.0,0.0,0.0,0.0,0.0,0.0,0.0,0.0,0.0,-0.00390625,0.99267578125,0.19287109375,0.0,0.0,0.0,False,0,76
0.0,0.0,0.0,0.0,0.0,0.0,0.0,0.0,0.0,0.0,0.0,0.0,0.0,0.0,0.0,False,0,73
-0.994055986404419,-0.014639999717473984,0.16835999488830566,1.6100000143051147,-2.161250114440918,1.3825000524520874,-0.15693999826908112,-0.05292000249028206,-0.3522399961948395,0.0,0.0,0.0,0.0,0.0,0.0,False,0,92
0.0,0.0,0.0,0.0,0.0,0.0,0.0,0.0,0.0,-0.005859375,0.97265625,0.20361328125,0.0,0.0,0.0,False,0,93
0.0,0.0,0.0,0.0,0.0,0.0,0.0,0.0,0.0,0.0,0.0,0.0,0.0,0.0,0.0,False,0,90
-0.9882000088691711,-0.024887999519705772,0.1727519929409027,1.4524999856948853,-2.40625,1.2162500619888306,-0.163100004196167,-0.04774000123143196,-0.3501400053501129,0.0,0.0,0.0,0.0,0.0,0.0,False,0,110
0.0,0.0,0.0,0.0,0.0,0.0,0.0,0.0,0.0,-0.01318359375,0.98974609375,0.20654296875,0.0,0.0,0.0,False,0,111
0.0,0.0,0.0,0.0,0.0,0.0,0.0,0.0,0.0,0.0,0.0,0.0,0.0,0.0,0.0,False,0,108
-0.9874680042266846,-0.016103999689221382,0.16616399586200714,1.4874999523162842,-2.6424999237060547,1.1637500524520874,-0.1677200049161911,-0.053620003163814545,-0.3543400168418884,0.0,0.0,0.0,0.0,0.0,0.0,False,0,127
0.0,0.0,0.0,0.0,0.0,0.0,0.0,0.0,0.0,-0.01416015625,0.98583984375,0.2109375,0.0,0.0,0.0,False,0,128
0.0,0.0,0.0,0.0,0.0,0.0,0.0,0.0,0.0,0.0,0.0,0.0,0.0,0.0,0.0,False,0,125
-1.0013760328292847,-0.006587999872863293,0.18007199466228485,1.5837500095367432,-2.5374999046325684,1.1637500524520874,-0.16632001101970673,-0.04997999966144562,-0.3551799952983856,0.0,0.0,0.0,0.0,0.0,0.0,False,0,144
0.0,0.0,0.0,0.0,0.0,0.0,0.0,0.0,0.0,-0.013671875,0.982421875,0.2216796875,0.0,0.0,0.0,False,0,145
0.0,0.0,0.0,0.0,0.0,0.0,0.0,0.0,0.0,0.0,0.0,0.0,0.0,0.0,0.0,False,0,142
-0.9999119639396667,-0.024887999519705772,0.16323599219322205,1.8112499713897705,-2.572499990463257,1.3212499618530273,-0.1572200059890747,-0.05403999984264374,-0.3616200089454651,0.0,0.0,0.0,0.0,0.0,0.0,False,0,162
0.0,0.0,0.0,0.0,0.0,0.0,0.0,0.0,0.0,0.01806640625,1.0224609375,0.19677734375,0.0,0.0,0.0,False,0,163
0.0,0.0,0.0,0.0,0.0,0.0,0.0,0.0,0.0,0.0,0.0,0.0,0.0,0.0,0.0,False,0,160
-0.9882000088691711,-0.01756799966096878,0.18007199466228485,1.2687499523162842,-2.502500057220459,1.3212499618530273,-0.15330000221729279,-0.047600001096725464,-0.3558800220489502,0.0,0.0,0.0,0.0,0.0,0.0,False,0,179
0.0,0.0,0.0,0.0,0.0,0.0,0.0,0.0,0.0,0.0087890625,0.99609375,0.21044921875,0.0,0.0,0.0,False,0,180
0.0,0.0,0.0,0.0,0.0,0.0,0.0,0.0,0.0,0.0,0.0,0.0,0.0,0.0,0.0,False,0,177
-0.9977160096168518,-0.011711999773979187,0.17202000319957733,1.7675000429153442,-2.555000066757202,1.3387500047683716,-0.15680000185966492,-0.0508200004696846,-0.34902000427246094,0.0,0.0,0.0,0.0,0.0,0.0,False,0,197
0.0,0.0,0.0,0.0,0.0,0.0,0.0,0.0,0.0,-0.001953125,0.994140625,0.21630859375,0.0,0.0,0.0,False,0,198
0.0,0.0,0.0,0.0,0.0,0.0,0.0,0.0,0.0,0.0,0.0,0.0,0.0,0.0,0.0,False,0,195
-0.9962520003318787,-0.016835998743772507,0.1727519929409027,1.53125,-2.3012499809265137,1.3562500476837158,-0.15637999773025513,-0.05138000100851059,-0.3518200218677521,0.0,0.0,0.0,0.0,0.0,0.0,False,0,214
0.0,0.0,0.0,0.0,0.0,0.0,0.0,0.0,0.0,-0.01025390625,0.98876953125,0.21044921875,0.0,0.0,0.0,False,0,215
0.0,0.0,0.0,0.0,0.0,0.0,0.0,0.0,0.0,0.0,0.0,0.0,0.0,0.0,0.0,False,0,212
-0.9969840049743652,-0.030743999406695366,0.16616399586200714,1.3387500047683716,-2.3450000286102295,1.347499966621399,-0.15876001119613647,-0.05348000302910805,-0.3543400168418884,0.0,0.0,0.0,0.0,0.0,0.0,False,0,231
0.0,0.0,0.0,0.0,0.0,0.0,0.0,0.0,0.0,0.00927734375,0.998046875,0.20654296875,0.0,0.0,0.0,False,0,232
0.0,0.0,0.0,0.0,0.0,0.0,0.0,0.0,0.0,0.0,0.0,0.0,0.0,0.0,0.0,False,0,229
-0.9991799592971802,-0.020495999604463577,0.16323599219322205,1.6100000143051147,-2.161250114440918,1.4700000286102295,-0.1679999977350235,-0.05236000195145607,-0.3598000109195709,0.0,0.0,0.0,0.0,0.0,0.0,False,0,249
0.0,0.0,0.0,0.0,0.0,0.0,0.0,0.0,0.0,0.01806640625,1.00830078125,0.19873046875,0.0,0.0,0.0,False,0,250
0.0,0.0,0.0,0.0,0.0,0.0,0.0,0.0,0.0,0.0,0.0,0.0,0.0,0.0,0.0,False,0,247
-0.9977160096168518,-0.016103999689221382,0.17421600222587585,1.3387500047683716,-2.502500057220459,1.2512500286102295,-0.16674000024795532,-0.055160000920295715,-0.34888002276420593,0.0,0.0,0.0,0.0,0.0,0.0,False,0,266
0.0,0.0,0.0,0.0,0.0,0.0,0.0,0.0,0.0,-0.0048828125,1.0078125,0.20361328125,0.0,0.0,0.0,False,0,267
0.0,0.0,0.0,0.0,0.0,0.0,0.0,0.0,0.0,0.0,0.0,0.0,0.0,0.0,0.0,False,0,264
-0.9991799592971802,-0.016103999689221382,0.1676279902458191,1.7412500381469727,-2.458750009536743,1.3825000524520874,-0.1633799970149994,-0.05908000096678734,-0.3670800030231476,0.0,0.0,0.0,0.0,0.0,0.0,False,0,284
0.0,0.0,0.0,0.0,0.0,0.0,0.0,0.0,0.0,-0.0107421875,0.9970703125,0.20166015625,0.0,0.0,0.0,False,0,285
0.0,0.0,0.0,0.0,0.0,0.0,0.0,0.0,0.0,0.0,0.0,0.0,0.0,0.0,0.0,False,0,282
-0.9896639585494995,-0.020495999604463577,0.187391996383667,1.6449999809265137,-2.4674999713897705,1.2074999809265137,-0.16505999863147736,-0.057819999754428864,-0.3610600233078003,0.0,0.0,0.0,0.0,0.0,0.0,False,0,301
0.0,0.0,0.0,0.0,0.0,0.0,0.0,0.0,0.0,-0.025390625,0.982421875,0.20458984375,0.0,0.0,0.0,False,0,302
0.0,0.0,0.0,0.0,0.0,0.0,0.0,0.0,0.0,0.0,0.0,0.0,0.0,0.0,0.0,False,0,299
-1.0006439685821533,-0.019763998687267303,0.1727519929409027,1.4612499475479126,-2.528749942779541,1.2162500619888306,-0.16086000204086304,-0.05656000226736069,-0.3543400168418884,0.0,0.0,0.0,0.0,0.0,0.0,False,0,318
0.0,0.0,0.0,0.0,0.0,0.0,0.0,0.0,0.0,-0.0068359375,0.99072265625,0.20556640625,0.0,0.0,0.0,False,0,319
0.0,0.0,0.0,0.0,0.0,0.0,0.0,0.0,0.0,0.0,0.0,0.0,0.0,0.0,0.0,False,0,316
-0.9984479546546936,-0.020495999604463577,0.16616399586200714,1.53125,-2.6424999237060547,1.4262499809265137,-0.1574999988079071,-0.05810000002384186,-0.3602200150489807,0.0,0.0,0.0,0.0,0.0,0.0,False,0,335
0.0,0.0,0.0,0.0,0.0,0.0,0.0,0.0,0.0,-0.0048828125,1.0,0.20361328125,0.0,0.0,0.0,False,0,336
0.0,0.0,0.0,0.0,0.0,0.0,0.0,0.0,0.0,0.0,0.0,0.0,0.0,0.0,0.0,False,0,333
-0.9925919771194458,-0.01903199963271618,0.18080399930477142,1.7412500381469727,-2.3187499046325684,1.399999976158142,-0.1626800000667572,-0.04774000123143196,-0.3612000048160553,0.0,0.0,0.0,0.0,0.0,0.0,False,0,352
0.0,0.0,0.0,0.0,0.0,0.0,0.0,0.0,0.0,-0.00048828125,0.994140625,0.19677734375,0.0,0.0,0.0,False,0,353
0.0,0.0,0.0,0.0,0.0,0.0,0.0,0.0,0.0,0.0,0.0,0.0,0.0,0.0,0.0,False,0,350
-0.9882000088691711,-0.02122800052165985,0.16323599219322205,1.7587499618530273,-2.40625,1.3562500476837158,-0.16646000742912292,-0.050680000334978104,-0.3570000231266022,0.0,0.0,0.0,0.0,0.0,0.0,False,0,369
0.0,0.0,0.0,0.0,0.0,0.0,0.0,0.0,0.0,-0.00341796875,0.998046875,0.2109375,0.0,0.0,0.0,False,0,370
0.0,0.0,0.0,0.0,0.0,0.0,0.0,0.0,0.0,0.0,0.0,0.0,0.0,0.0,0.0,False,0,367
-0.9889319539070129,-0.0226919986307621,0.17641200125217438,1.7062499523162842,-2.572499990463257,1.181249976158142,-0.16408000886440277,-0.04676000028848648,-0.36400002241134644,0.0,0.0,0.0,0.0,0.0,0.0,False,0,386
0.0,0.0,0.0,0.0,0.0,0.0,0.0,0.0,0.0,-0.0166015625,0.98291015625,0.2099609375,0.0,0.0,0.0,False,0,387
0.0,0.0,0.0,0.0,0.0,0.0,0.0,0.0,0.0,0.0,0.0,0.0,0.0,0.0,0.0,False,0,384
-0.986735999584198,-0.016103999689221382,0.1698240041732788,1.408750057220459,-2.1962499618530273,1.277500033378601,-0.16128000617027283,-0.05222000181674957,-0.3655399978160858,0.0,0.0,0.0,0.0,0.0,0.0,False,0,403
0.0,0.0,0.0,0.0,0.0,0.0,0.0,0.0,0.0,-0.02587890625,0.9873046875,0.20068359375,0.0,0.0,0.0,False,0,404
0.0,0.0,0.0,0.0,0.0,0.0,0.0,0.0,0.0,0.0,0.0,0.0,0.0,0.0,0.0,False,0,401
-0.9823439717292786,-0.02122800052165985,0.18299999833106995,1.6100000143051147,-2.555000066757202,1.347499966621399,-0.1577800065279007,-0.05040000006556511,-0.3547600209712982,0.0,0.0,0.0,0.0,0.0,0.0,False,0,421
0.0,0.0,0.0,0.0,0.0,0.0,0.0,0.0,0.0,-0.00146484375,0.998046875,0.1923828125,0.0,0.0,0.0,False,0,422
0.0,0.0,0.0,0.0,0.0,0.0,0.0,0.0,0.0,0.0,0.0,0.0,0.0,0.0,0.0,False,0,419
-0.986735999584198,-0.01903199963271618,0.17348399758338928,1.784999966621399,-2.502500057220459,1.4524999856948853,-0.1576400101184845,-0.05194000154733658,-0.3498600125312805,0.0,0.0,0.0,0.0,0.0,0.0,False,0,438
0.0,0.0,0.0,0.0,0.0,0.0,0.0,0.0,0.0,-0.0048828125,1.00244140625,0.21240234375,0.0,0.0,0.0,False,0,439
0.0,0.0,0.0,0.0,0.0,0.0,0.0,0.0,0.0,0.0,0.0,0.0,0.0,0.0,0.0,False,0,436
-0.9911279678344727,-0.024156000465154648,0.1676279902458191,1.6362500190734863,-2.362499952316284,1.3737499713897705,-0.15442000329494476,-0.04788000136613846,-0.3502800166606903,0.0,0.0,0.0,0.0,0.0,0.0,False,0,456
0.0,0.0,0.0,0.0,0.0,0.0,0.0,0.0,0.0,-0.00341796875,1.009765625,0.21337890625,0.0,0.0,0.0,False,0,457
0.0,0.0,0.0,0.0,0.0,0.0,0.0,0.0,0.0,0.0,0.0,0.0,0.0,0.0,0.0,False,0,454
-0.9991799592971802,-0.016103999689221382,0.18007199466228485,1.3387500047683716,-2.5199999809265137,1.2949999570846558,-0.1574999988079071,-0.05320000275969505,-0.35896000266075134,0.0,0.0,0.0,0.0,0.0,0.0,False,0,473
0.0,0.0,0.0,0.0,0.0,0.0,0.0,0.0,0.0,-0.005859375,0.99462890625,0.20654296875,0.0,0.0,0.0,False,0,474
0.0,0.0,0.0,0.0,0.0,0.0,0.0,0.0,0.0,0.0,0.0,0.0,0.0,0.0,0.0,False,0,471
-0.9947879910469055,-0.021959999576210976,0.18812400102615356,1.5837500095367432,-2.3712499141693115,1.3825000524520874,-0.16534000635147095,-0.04886000230908394,-0.34916001558303833,0.0,0.0,0.0,0.0,0.0,0.0,False,0,490
0.0,0.0,0.0,0.0,0.0,0.0,0.0,0.0,0.0,-0.01123046875,0.9853515625,0.2353515625,0.0,0.0,0.0,False,0,491
0.0,0.0,0.0,0.0,0.0,0.0,0.0,0.0,0.0,0.0,0.0,0.0,0.0,0.0,0.0,False,0,488
-0.994055986404419,-0.021959999576210976,0.17421600222587585,1.3562500476837158,-2.380000114440918,1.2599999904632568,-0.16043999791145325,-0.05320000275969505,-0.3502800166606903,0.0,0.0,0.0,0.0,0.0,0.0,False,0,508
0.0,0.0,0.0,0.0,0.0,0.0,0.0,0.0,0.0,-0.0009765625,0.99658203125,0.24755859375,0.0,0.0,0.0,False,0,509
0.0,0.0,0.0,0.0,0.0,0.0,0.0,0.0,0.0,0.0,0.0,0.0,0.0,0.0,0.0,False,0,506
-0.9984479546546936,-0.021959999576210976,0.1727519929409027,1.7762500047683716,-2.484999895095825,1.347499966621399,-0.162540003657341,-0.05292000249028206,-0.36764001846313477,0.0,0.0,0.0,0.0,0.0,0.0,False,0,525
0.0,0.0,0.0,0.0,0.0,0.0,0.0,0.0,0.0,-0.01123046875,0.978515625,0.22900390625,0.0,0.0,0.0,False,0,526
0.0,0.0,0.0,0.0,0.0,0.0,0.0,0.0,0.0,0.0,0.0,0.0,0.0,0.0,0.0,False,0,523
-0.9918599724769592,-0.00951599981635809,0.16250400245189667,1.4524999856948853,-2.4674999713897705,1.408750057220459,-0.15931999683380127,-0.05544000118970871,-0.3612000048160553,0.0,0.0,0.0,0.0,0.0,0.0,False,0,543
0.0,0.0,0.0,0.0,0.0,0.0,0.0,0.0,0.0,-0.005859375,0.994140625,0.1953125,0.0,0.0,0.0,False,0,544
0.0,0.0,0.0,0.0,0.0,0.0,0.0,0.0,0.0,0.0,0.0,0.0,0.0,0.0,0.0,False,0,541
-0.9955199956893921,-0.014639999717473984,0.17128799855709076,1.5750000476837158,-2.484999895095825,1.1112500429153442,-0.15442000329494476,-0.050540000200271606,-0.36386001110076904,0.0,0.0,0.0,0.0,0.0,0.0,False,0,560
0.0,0.0,0.0,0.0,0.0,0.0,0.0,0.0,0.0,0.01806640625,1.0078125,0.1845703125,0.0,0.0,0.0,False,0,561
0.0,0.0,0.0,0.0,0.0,0.0,0.0,0.0,0.0,0.0,0.0,0.0,0.0,0.0,0.0,False,0,558
-0.9977160096168518,-0.014639999717473984,0.17494799196720123,1.5837500095367432,-2.362499952316284,1.5137499570846558,-0.16393999755382538,-0.05810000002384186,-0.3571400046348572,0.0,0.0,0.0,0.0,0.0,0.0,False,0,577
0.0,0.0,0.0,0.0,0.0,0.0,0.0,0.0,0.0,0.02392578125,1.00439453125,0.19091796875,0.0,0.0,0.0,False,0,578
0.0,0.0,0.0,0.0,0.0,0.0,0.0,0.0,0.0,0.0,0.0,0.0,0.0,0.0,0.0,False,0,575
-1.0028399229049683,-0.012443999759852886,0.17494799196720123,1.5575000047683716,-2.5199999809265137,1.225000023841858,-0.1622600108385086,-0.06258000433444977,-0.35840001702308655,0.0,0.0,0.0,0.0,0.0,0.0,False,0,595
0.0,0.0,0.0,0.0,0.0,0.0,0.0,0.0,0.0,0.01025390625,0.99365234375,0.205078125,0.0,0.0,0.0,False,0,596
0.0,0.0,0.0,0.0,0.0,0.0,0.0,0.0,0.0,0.0,0.0,0.0,0.0,0.0,0.0,False,0,593
-0.9984479546546936,-0.015371999703347683,0.16909199953079224,1.5137499570846558,-2.765000104904175,1.4787499904632568,-0.16632001101970673,-0.048020001500844955,-0.35447999835014343,0.0,0.0,0.0,0.0,0.0,0.0,False,0,612
0.0,0.0,0.0,0.0,0.0,0.0,0.0,0.0,0.0,0.00634765625,0.99755859375,0.21630859375,0.0,0.0,0.0,False,0,613
0.0,0.0,0.0,0.0,0.0,0.0,0.0,0.0,0.0,0.0,0.0,0.0,0.0,0.0,0.0,False,0,610
-0.9925919771194458,-0.016835998743772507,0.17348399758338928,1.566249966621399,-2.7825000286102295,1.4612499475479126,-0.1673000007867813,-0.051660001277923584,-0.3505600094795227,0.0,0.0,0.0,0.0,0.0,0.0,False,0,630
0.0,0.0,0.0,0.0,0.0,0.0,0.0,0.0,0.0,0.00341796875,1.0009765625,0.22412109375,0.0,0.0,0.0,False,0,631
0.0,0.0,0.0,0.0,0.0,0.0,0.0,0.0,0.0,0.0,0.0,0.0,0.0,0.0,0.0,False,0,628
-0.9991799592971802,-0.016103999689221382,0.18373200297355652,1.5399999618530273,-2.765000104904175,1.3737499713897705,-0.1677200049161911,-0.05194000154733658,-0.3546200096607208,0.0,0.0,0.0,0.0,0.0,0.0,False,0,647
0.0,0.0,0.0,0.0,0.0,0.0,0.0,0.0,0.0,0.00634765625,0.99755859375,0.21923828125,0.0,0.0,0.0,False,0,648
0.0,0.0,0.0,0.0,0.0,0.0,0.0,0.0,0.0,0.0,0.0,0.0,0.0,0.0,0.0,False,0,645
-0.9933239817619324,-0.016835998743772507,0.17494799196720123,1.566249966621399,-2.4412500858306885,1.3912500143051147,-0.1685599982738495,-0.050119999796152115,-0.3551799952983856,0.0,0.0,0.0,0.0,0.0,0.0,False,0,664
0.0,0.0,0.0,0.0,0.0,0.0,0.0,0.0,0.0,0.001953125,0.99755859375,0.2119140625,0.0,0.0,0.0,False,0,665
0.0,0.0,0.0,0.0,0.0,0.0,0.0,0.0,0.0,0.0,0.0,0.0,0.0,0.0,0.0,False,0,662
-0.9962520003318787,-0.008051999844610691,0.17494799196720123,1.6974999904632568,-2.6162500381469727,1.3650000095367432,-0.16155999898910522,-0.054179999977350235,-0.35756000876426697,0.0,0.0,0.0,0.0,0.0,0.0,False,0,682
0.0,0.0,0.0,0.0,0.0,0.0,0.0,0.0,0.0,-0.00341796875,0.99609375,0.203125,0.0,0.0,0.0,False,0,683
0.0,0.0,0.0,0.0,0.0,0.0,0.0,0.0,0.0,0.0,0.0,0.0,0.0,0.0,0.0,False,0,680
-0.9911279678344727,-0.016835998743772507,0.36746400594711304,1.4262499809265137,-2.40625,1.3562500476837158,-0.15540000796318054,-0.05194000154733658,-0.3603599965572357,0.0,0.0,0.0,0.0,0.0,0.0,False,0,699
0.0,0.0,0.0,0.0,0.0,0.0,0.0,0.0,0.0,-0.0205078125,1.00732421875,0.21728515625,0.0,0.0,0.0,False,0,700
0.0,0.0,0.0,0.0,0.0,0.0,0.0,0.0,0.0,0.0,0.0,0.0,0.0,0.0,0.0,False,0,697
-0.9984479546546936,-0.015371999703347683,0.17641200125217438,1.566249966621399,-2.5199999809265137,1.190000057220459,-0.15974000096321106,-0.05278000235557556,-0.35798001289367676,0.0,0.0,0.0,0.0,0.0,0.0,False,0,717
0.0,0.0,0.0,0.0,0.0,0.0,0.0,0.0,0.0,-0.03076171875,1.005859375,0.22607421875,0.0,0.0,0.0,False,0,718
0.0,0.0,0.0,0.0,0.0,0.0,0.0,0.0,0.0,0.0,0.0,0.0,0.0,0.0,0.0,False,0,715
-0.9845399856567383,-0.016835998743772507,0.18080399930477142,1.784999966621399,-2.4412500858306885,1.3037500381469727,-0.15568000078201294,-0.05138000100851059,-0.3625999987125397,0.0,0.0,0.0,0.0,0.0,0.0,False,0,734
0.0,0.0,0.0,0.0,0.0,0.0,0.0,0.0,0.0,0.01025390625,1.0,0.2119140625,0.0,0.0,0.0,False,0,735
0.0,0.0,0.0,0.0,0.0,0.0,0.0,0.0,0.0,0.0,0.0,0.0,0.0,0.0,0.0,False,0,732
-0.9911279678344727,-0.02122800052165985,0.19105198979377747,1.7062499523162842,-2.528749942779541,1.2687499523162842,-0.15820001065731049,-0.05389999970793724,-0.35853999853134155,0.0,0.0,0.0,0.0,0.0,0.0,False,0,751
0.0,0.0,0.0,0.0,0.0,0.0,0.0,0.0,0.0,0.01708984375,1.009765625,0.19482421875,0.0,0.0,0.0,False,0,752
0.0,0.0,0.0,0.0,0.0,0.0,0.0,0.0,0.0,0.0,0.0,0.0,0.0,0.0,0.0,False,0,749
-0.9977160096168518,-0.020495999604463577,0.18299999833106995,1.6537500619888306,-2.6162500381469727,1.408750057220459,-0.162540003657341,-0.05292000249028206,-0.35923999547958374,0.0,0.0,0.0,0.0,0.0,0.0,False,0,769
0.0,0.0,0.0,0.0,0.0,0.0,0.0,0.0,0.0,0.01318359375,0.99658203125,0.1982421875,0.0,0.0,0.0,False,0,770
0.0,0.0,0.0,0.0,0.0,0.0,0.0,0.0,0.0,0.0,0.0,0.0,0.0,0.0,0.0,False,0,767
-0.9962520003318787,-0.015371999703347683,0.1903200000524521,1.8899999856948853,-2.598750114440918,1.128749966621399,-0.15470001101493835,-0.05348000302910805,-0.3560200035572052,0.0,0.0,0.0,0.0,0.0,0.0,False,0,786
0.0,0.0,0.0,0.0,0.0,0.0,0.0,0.0,0.0,-0.01904296875,0.9755859375,0.21240234375,0.0,0.0,0.0,False,0,787
0.0,0.0,0.0,0.0,0.0,0.0,0.0,0.0,0.0,0.0,0.0,0.0,0.0,0.0,0.0,False,0,784
-0.9955199956893921,-0.010247999802231789,0.18885599076747894,1.618749976158142,-2.476249933242798,1.3387500047683716,-0.16352000832557678,-0.04438000172376633,-0.35812002420425415,0.0,0.0,0.0,0.0,0.0,0.0,False,0,804
0.0,0.0,0.0,0.0,0.0,0.0,0.0,0.0,0.0,-0.009765625,0.98828125,0.20849609375,0.0,0.0,0.0,False,0,805
0.0,0.0,0.0,0.0,0.0,0.0,0.0,0.0,0.0,0.0,0.0,0.0,0.0,0.0,0.0,False,0,802
-0.994055986404419,-0.016835998743772507,0.18885599076747894,1.6100000143051147,-2.476249933242798,1.4700000286102295,-0.16436000168323517,-0.04227999970316887,-0.3558800220489502,0.0,0.0,0.0,0.0,0.0,0.0,False,0,821
0.0,0.0,0.0,0.0,0.0,0.0,0.0,0.0,0.0,-0.00341796875,0.98583984375,0.203125,0.0,0.0,0.0,False,0,822
0.0,0.0,0.0,0.0,0.0,0.0,0.0,0.0,0.0,0.0,0.0,0.0,0.0,0.0,0.0,False,0,819
-0.9911279678344727,-0.01756799966096878,0.1786080002784729,1.4524999856948853,-2.5899999141693115,1.3212499618530273,-0.16911999881267548,-0.054740000516176224,-0.36344000697135925,0.0,0.0,0.0,0.0,0.0,0.0,False,0,838
0.0,0.0,0.0,0.0,0.0,0.0,0.0,0.0,0.0,-0.01025390625,0.9775390625,0.2177734375,0.0,0.0,0.0,False,0,839
0.0,0.0,0.0,0.0,0.0,0.0,0.0,0.0,0.0,0.0,0.0,0.0,0.0,0.0,0.0,False,0,836
-0.986735999584198,-0.016103999689221382,0.17787599563598633,1.5575000047683716,-2.5637500286102295,1.3037500381469727,-0.1573600023984909,-0.05292000249028206,-0.35868000984191895,0.0,0.0,0.0,0.0,0.0,0.0,False,0,856
0.0,0.0,0.0,0.0,0.0,0.0,0.0,0.0,0.0,-0.0107421875,0.98583984375,0.22607421875,0.0,0.0,0.0,False,0,857
0.0,0.0,0.0,0.0,0.0,0.0,0.0,0.0,0.0,0.0,0.0,0.0,0.0,0.0,0.0,False,0,854
-0.9874680042266846,-0.015371999703347683,0.17714399099349976,1.2687499523162842,-2.2925000190734863,1.3300000429153442,-0.16478000581264496,-0.058240000158548355,-0.3623200058937073,0.0,0.0,0.0,0.0,0.0,0.0,False,0,874
0.0,0.0,0.0,0.0,0.0,0.0,0.0,0.0,0.0,-0.00634765625,0.99658203125,0.21142578125,0.0,0.0,0.0,False,0,875
0.0,0.0,0.0,0.0,0.0,0.0,0.0,0.0,0.0,0.0,0.0,0.0,0.0,0.0,0.0,False,0,872
-0.9925919771194458,-0.010247999802231789,0.17787599563598633,1.7762500047683716,-2.6162500381469727,1.3037500381469727,-0.16926001012325287,-0.052640002220869064,-0.35238000750541687,0.0,0.0,0.0,0.0,0.0,0.0,False,0,892
0.0,0.0,0.0,0.0,0.0,0.0,0.0,0.0,0.0,0.005859375,1.00244140625,0.19189453125,0.0,0.0,0.0,False,0,893
0.0,0.0,0.0,0.0,0.0,0.0,0.0,0.0,0.0,0.0,0.0,0.0,0.0,0.0,0.0,False,0,890
-0.9860039949417114,-0.011711999773979187,0.18373200297355652,1.7937500476837158,-2.598750114440918,1.2512500286102295,-0.16436000168323517,-0.05740000307559967,-0.3549000024795532,0.0,0.0,0.0,0.0,0.0,0.0,False,0,909
0.0,0.0,0.0,0.0,0.0,0.0,0.0,0.0,0.0,-0.00537109375,1.00341796875,0.21826171875,0.0,0.0,0.0,False,0,910
0.0,0.0,0.0,0.0,0.0,0.0,0.0,0.0,0.0,0.0,0.0,0.0,0.0,0.0,0.0,False,0,907
-0.9977160096168518,-0.016835998743772507,0.17348399758338928,1.5487500429153442,-2.555000066757202,1.3562500476837158,-0.16449999809265137,-0.05250000208616257,-0.3494400084018707,0.0,0.0,0.0,0.0,0.0,0.0,False,0,926
0.0,0.0,0.0,0.0,0.0,0.0,0.0,0.0,0.0,-0.0146484375,0.99267578125,0.22216796875,0.0,0.0,0.0,False,0,927
0.0,0.0,0.0,0.0,0.0,0.0,0.0,0.0,0.0,0.0,0.0,0.0,0.0,0.0,0.0,False,0,924
-0.9903959631919861,-0.013175999745726585,0.18007199466228485,1.6712499856948853,-2.5374999046325684,1.2512500286102295,-0.16576001048088074,-0.05194000154733658,-0.35335999727249146,0.0,0.0,0.0,0.0,0.0,0.0,False,0,944
0.0,0.0,0.0,0.0,0.0,0.0,0.0,0.0,0.0,-0.0009765625,0.9873046875,0.205078125,0.0,0.0,0.0,False,0,945
0.0,0.0,0.0,0.0,0.0,0.0,0.0,0.0,0.0,0.0,0.0,0.0,0.0,0.0,0.0,False,0,942
-0.9918599724769592,-0.01756799966096878,0.18299999833106995,1.5837500095367432,-2.476249933242798,1.4350000619888306,-0.15652000904083252,-0.04619999974966049,-0.3515399992465973,0.0,0.0,0.0,0.0,0.0,0.0,False,0,961
0.0,0.0,0.0,0.0,0.0,0.0,0.0,0.0,0.0,0.00732421875,0.9853515625,0.2001953125,0.0,0.0,0.0,False,0,962
0.0,0.0,0.0,0.0,0.0,0.0,0.0,0.0,0.0,0.0,0.0,0.0,0.0,0.0,0.0,False,0,959
-0.9955199956893921,-0.010247999802231789,0.18299999833106995,1.7675000429153442,-2.528749942779541,1.4700000286102295,-0.16155999898910522,-0.046620000153779984,-0.3613400161266327,0.0,0.0,0.0,0.0,0.0,0.0,False,0,979
0.0,0.0,0.0,0.0,0.0,0.0,0.0,0.0,0.0,0.0126953125,0.9951171875,0.19873046875,0.0,0.0,0.0,False,0,980
0.0,0.0,0.0,0.0,0.0,0.0,0.0,0.0,0.0,0.0,0.0,0.0,0.0,0.0,0.0,False,0,977
-0.9903959631919861,-0.02635199949145317,0.1815359890460968,1.75,-2.6862499713897705,1.3912500143051147,-0.16422000527381897,-0.04914000257849693,-0.36344000697135925,0.0,0.0,0.0,0.0,0.0,0.0,False,0,996
0.0,0.0,0.0,0.0,0.0,0.0,0.0,0.0,0.0,0.00732421875,0.9951171875,0.19091796875,0.0,0.0,0.0,False,0,997
0.0,0.0,0.0,0.0,0.0,0.0,0.0,0.0,0.0,0.0,0.0,0.0,0.0,0.0,0.0,False,0,994
-0.9852719902992249,-0.004391999915242195,0.18007199466228485,1.618749976158142,-2.4237499237060547,1.4787499904632568,-0.16198000311851501,-0.05236000195145607,-0.35770002007484436,0.0,0.0,0.0,0.0,0.0,0.0,False,0,1013
0.0,0.0,0.0,0.0,0.0,0.0,0.0,0.0,0.0,-0.00439453125,1.00146484375,0.20166015625,0.0,0.0,0.0,False,0,1014
0.0,0.0,0.0,0.0,0.0,0.0,0.0,0.0,0.0,0.0,0.0,0.0,0.0,0.0,0.0,False,0,1011
-0.9933239817619324,-0.008051999844610691,0.17787599563598633,1.3650000095367432,-2.502500057220459,1.3650000095367432,-0.15820001065731049,-0.057680003345012665,-0.3448200225830078,0.0,0.0,0.0,0.0,0.0,0.0,False,0,1031
0.0,0.0,0.0,0.0,0.0,0.0,0.0,0.0,0.0,-0.0185546875,0.98681640625,0.208984375,0.0,0.0,0.0,False,0,1032
0.0,0.0,0.0,0.0,0.0,0.0,0.0,0.0,0.0,0.0,0.0,0.0,0.0,0.0,0.0,False,0,1029
-0.9860039949417114,-0.01903199963271618,0.17933999001979828,1.4612499475479126,-2.528749942779541,1.3650000095367432,-0.16561999917030334,-0.05502000078558922,-0.34747999906539917,0.0,0.0,0.0,0.0,0.0,0.0,False,0,1048
0.0,0.0,0.0,0.0,0.0,0.0,0.0,0.0,0.0,-0.0087890625,0.98681640625,0.19921875,0.0,0.0,0.0,False,0,1049
0.0,0.0,0.0,0.0,0.0,0.0,0.0,0.0,0.0,0.0,0.0,0.0,0.0,0.0,0.0,False,0,1046
-0.986735999584198,-0.021959999576210976,0.1786080002784729,1.443750023841858,-2.5899999141693115,1.399999976158142,-0.1681400090456009,-0.046620000153779984,-0.3449600040912628,0.0,0.0,0.0,0.0,0.0,0.0,False,0,1066
0.0,0.0,0.0,0.0,0.0,0.0,0.0,0.0,0.0,-0.00244140625,0.990234375,0.1904296875,0.0,0.0,0.0,False,0,1067
0.0,0.0,0.0,0.0,0.0,0.0,0.0,0.0,0.0,0.0,0.0,0.0,0.0,0.0,0.0,False,0,1064
-0.9962520003318787,-0.010247999802231789,0.17787599563598633,1.6974999904632568,-2.4937500953674316,1.2687499523162842,-0.16674000024795532,-0.04676000028848648,-0.3459400236606598,0.0,0.0,0.0,0.0,0.0,0.0,False,0,1083
0.0,0.0,0.0,0.0,0.0,0.0,0.0,0.0,0.0,0.00146484375,0.9921875,0.19482421875,0.0,0.0,0.0,False,0,1084
0.0,0.0,0.0,0.0,0.0,0.0,0.0,0.0,0.0,0.0,0.0,0.0,0.0,0.0,0.0,False,0,1081
-0.9991799592971802,-0.023423999547958374,0.36673200130462646,1.7062499523162842,-2.598750114440918,1.1987500190734863,-0.16660000383853912,-0.05292000249028206,-0.3568600118160248,0.0,0.0,0.0,0.0,0.0,0.0,False,0,1100
0.0,0.0,0.0,0.0,0.0,0.0,0.0,0.0,0.0,0.00439453125,0.9970703125,0.1953125,0.0,0.0,0.0,False,0,1101
0.0,0.0,0.0,0.0,0.0,0.0,0.0,0.0,0.0,0.0,0.0,0.0,0.0,0.0,0.0,False,0,1098
-0.9947879910469055,-0.016835998743772507,0.17421600222587585,1.566249966621399,-2.625,1.277500033378601,-0.16604000329971313,-0.05502000078558922,-0.35378000140190125,0.0,0.0,0.0,0.0,0.0,0.0,False,0,1118
0.0,0.0,0.0,0.0,0.0,0.0,0.0,0.0,0.0,0.00390625,0.99951171875,0.19189453125,0.0,0.0,0.0,False,0,1119
0.0,0.0,0.0,0.0,0.0,0.0,0.0,0.0,0.0,0.0,0.0,0.0,0.0,0.0,0.0,False,0,1116
-0.9933239817619324,-0.007319999858736992,0.18007199466228485,1.4700000286102295,-2.476249933242798,1.1987500190734863,-0.16464000940322876,-0.052080001682043076,-0.3504199981689453,0.0,0.0,0.0,0.0,0.0,0.0,False,0,1135
0.0,0.0,0.0,0.0,0.0,0.0,0.0,0.0,0.0,-0.00830078125,1.00390625,0.19921875,0.0,0.0,0.0,False,0,1136
0.0,0.0,0.0,0.0,0.0,0.0,0.0,0.0,0.0,0.0,0.0,0.0,0.0,0.0,0.0,False,0,1133
-0.9852719902992249,-0.01756799966096878,0.18080399930477142,1.4787499904632568,-2.721250057220459,1.3125,-0.15974000096321106,-0.054179999977350235,-0.34552001953125,0.0,0.0,0.0,0.0,0.0,0.0,False,0,1153
0.0,0.0,0.0,0.0,0.0,0.0,0.0,0.0,0.0,-0.0146484375,1.00146484375,0.19970703125,0.0,0.0,0.0,False,0,1154
0.0,0.0,0.0,0.0,0.0,0.0,0.0,0.0,0.0,0.0,0.0,0.0,0.0,0.0,0.0,False,0,1151
-0.9918599724769592,-0.011711999773979187,0.18592800199985504,1.7412500381469727,-2.362499952316284,1.347499966621399,-0.1622600108385086,-0.05222000181674957,-0.346640020608902,0.0,0.0,0.0,0.0,0.0,0.0,False,0,1170
0.0,0.0,0.0,0.0,0.0,0.0,0.0,0.0,0.0,-0.0087890625,0.9833984375,0.19287109375,0.0,0.0,0.0,False,0,1171
0.0,0.0,0.0,0.0,0.0,0.0,0.0,0.0,0.0,0.0,0.0,0.0,0.0,0.0,0.0,False,0,1168
-0.9984479546546936,-0.015371999703347683,0.1756799966096878,1.6887500286102295,-2.476249933242798,1.399999976158142,-0.16548000276088715,-0.050540000200271606,-0.34790000319480896,0.0,0.0,0.0,0.0,0.0,0.0,False,0,1187
0.0,0.0,0.0,0.0,0.0,0.0,0.0,0.0,0.0,-0.0078125,0.986328125,0.1982421875,0.0,0.0,0.0,False,0,1188
0.0,0.0,0.0,0.0,0.0,0.0,0.0,0.0,0.0,0.0,0.0,0.0,0.0,0.0,0.0,False,0,1185
-0.9860039949417114,-0.012443999759852886,0.1756799966096878,1.7587499618530273,-2.6424999237060547,1.2862499952316284,-0.16617999970912933,-0.04718000069260597,-0.34356001019477844,0.0,0.0,0.0,0.0,0.0,0.0,False,0,1205
0.0,0.0,0.0,0.0,0.0,0.0,0.0,0.0,0.0,0.01220703125,0.99658203125,0.18798828125,0.0,0.0,0.0,False,0,1206
0.0,0.0,0.0,0.0,0.0,0.0,0.0,0.0,0.0,0.0,0.0,0.0,0.0,0.0,0.0,False,0,1203
-0.9984479546546936,-0.013907999731600285,0.18373200297355652,1.5575000047683716,-2.432500123977661,1.5225000381469727,-0.15974000096321106,-0.04816000163555145,-0.3460800051689148,0.0,0.0,0.0,0.0,0.0,0.0,False,0,1222
0.0,0.0,0.0,0.0,0.0,0.0,0.0,0.0,0.0,0.0078125,0.990234375,0.205078125,0.0,0.0,0.0,False,0,1223
0.0,0.0,0.0,0.0,0.0,0.0,0.0,0.0,0.0,0.0,0.0,0.0,0.0,0.0,0.0,False,0,1220
-1.0035719871520996,-0.021959999576210976,0.1844639927148819,1.4612499475479126,-2.502500057220459,1.4524999856948853,-0.16072000563144684,-0.04844000190496445,-0.3554600179195404,0.0,0.0,0.0,0.0,0.0,0.0,False,0,1240
0.0,0.0,0.0,0.0,0.0,0.0,0.0,0.0,0.0,0.0,0.99365234375,0.2109375,0.0,0.0,0.0,False,0,1241
0.0,0.0,0.0,0.0,0.0,0.0,0.0,0.0,0.0,0.0,0.0,0.0,0.0,0.0,0.0,False,0,1238
-0.9984479546546936,-0.01903199963271618,0.17787599563598633,1.7762500047683716,-2.458750009536743,1.6012500524520874,-0.15624000132083893,-0.04536000266671181,-0.3605000078678131,0.0,0.0,0.0,0.0,0.0,0.0,False,0,1257
0.0,0.0,0.0,0.0,0.0,0.0,0.0,0.0,0.0,0.00244140625,0.99658203125,0.20654296875,0.0,0.0,0.0,False,0,1258
0.0,0.0,0.0,0.0,0.0,0.0,0.0,0.0,0.0,0.0,0.0,0.0,0.0,0.0,0.0,False,0,1255
-0.9933239817619324,-0.020495999604463577,0.18885599076747894,1.6974999904632568,-2.3712499141693115,1.2512500286102295,-0.1633799970149994,-0.057120002806186676,-0.3570000231266022,0.0,0.0,0.0,0.0,0.0,0.0,False,0,1274
0.0,0.0,0.0,0.0,0.0,0.0,0.0,0.0,0.0,0.0,0.9892578125,0.203125,0.0,0.0,0.0,False,0,1275
0.0,0.0,0.0,0.0,0.0,0.0,0.0,0.0,0.0,0.0,0.0,0.0,0.0,0.0,0.0,False,0,1272
-0.9860039949417114,-0.01903199963271618,0.18299999833106995,1.6887500286102295,-2.484999895095825,1.3562500476837158,-0.15960000455379486,-0.05348000302910805,-0.35447999835014343,0.0,0.0,0.0,0.0,0.0,0.0,False,0,1292
0.0,0.0,0.0,0.0,0.0,0.0,0.0,0.0,0.0,-0.013671875,0.98046875,0.20849609375,0.0,0.0,0.0,False,0,1293
0.0,0.0,0.0,0.0,0.0,0.0,0.0,0.0,0.0,0.0,0.0,0.0,0.0,0.0,0.0,False,0,1290
-0.994055986404419,-0.02122800052165985,0.18080399930477142,1.6362500190734863,-2.1962499618530273,1.347499966621399,-0.16170001029968262,-0.051100000739097595,-0.3494400084018707,0.0,0.0,0.0,0.0,0.0,0.0,False,0,1309
0.0,0.0,0.0,0.0,0.0,0.0,0.0,0.0,0.0,-0.01611328125,0.9892578125,0.2138671875,0.0,0.0,0.0,False,0,1310
0.0,0.0,0.0,0.0,0.0,0.0,0.0,0.0,0.0,0.0,0.0,0.0,0.0,0.0,0.0,False,0,1307
-0.9977160096168518,-0.016835998743772507,0.18665999174118042,1.662500023841858,-2.6600000858306885,1.347499966621399,-0.16366000473499298,-0.046480000019073486,-0.34860000014305115,0.0,0.0,0.0,0.0,0.0,0.0,False,0,1327
0.0,0.0,0.0,0.0,0.0,0.0,0.0,0.0,0.0,-0.01123046875,0.99560546875,0.21630859375,0.0,0.0,0.0,False,0,1328
0.0,0.0,0.0,0.0,0.0,0.0,0.0,0.0,0.0,0.0,0.0,0.0,0.0,0.0,0.0,False,0,1325
-0.9962520003318787,-0.01903199963271618,0.18373200297355652,1.6012500524520874,-2.668750047683716,1.3825000524520874,-0.16884000599384308,-0.04732000082731247,-0.3560200035572052,0.0,0.0,0.0,0.0,0.0,0.0,False,0,1344
0.0,0.0,0.0,0.0,0.0,0.0,0.0,0.0,0.0,0.00244140625,1.0107421875,0.20166015625,0.0,0.0,0.0,False,0,1345
0.0,0.0,0.0,0.0,0.0,0.0,0.0,0.0,0.0,0.0,0.0,0.0,0.0,0.0,0.0,False,0,1342
-0.9911279678344727,-0.0226919986307621,0.1925159990787506,1.7412500381469727,-2.3187499046325684,1.3212499618530273,-0.17388001084327698,-0.04676000028848648,-0.3571400046348572,0.0,0.0,0.0,0.0,0.0,0.0,False,0,1361
0.0,0.0,0.0,0.0,0.0,0.0,0.0,0.0,0.0,-0.01123046875,0.9970703125,0.21728515625,0.0,0.0,0.0,False,0,1362
0.0,0.0,0.0,0.0,0.0,0.0,0.0,0.0,0.0,0.0,0.0,0.0,0.0,0.0,0.0,False,0,1359
-0.9896639585494995,-0.01903199963271618,0.17714399099349976,1.881250023841858,-2.546250104904175,1.2862499952316284,-0.1674399971961975,-0.04983999952673912,-0.3654000163078308,0.0,0.0,0.0,0.0,0.0,0.0,False,0,1379
0.0,0.0,0.0,0.0,0.0,0.0,0.0,0.0,0.0,-0.013671875,0.9892578125,0.2236328125,0.0,0.0,0.0,False,0,1380
0.0,0.0,0.0,0.0,0.0,0.0,0.0,0.0,0.0,0.0,0.0,0.0,0.0,0.0,0.0,False,0,1377
-0.9918599724769592,-0.011711999773979187,0.18226799368858337,1.837499976158142,-2.432500123977661,1.277500033378601,-0.16660000383853912,-0.052080001682043076,-0.3666599988937378,0.0,0.0,0.0,0.0,0.0,0.0,False,0,1396
0.0,0.0,0.0,0.0,0.0,0.0,0.0,0.0,0.0,-0.0087890625,0.9794921875,0.2470703125,0.0,0.0,0.0,False,0,1397
0.0,0.0,0.0,0.0,0.0,0.0,0.0,0.0,0.0,0.0,0.0,0.0,0.0,0.0,0.0,False,0,1394
-0.9911279678344727,-0.016103999689221382,0.18519599735736847,1.7675000429153442,-2.572499990463257,1.443750023841858,-0.1629600077867508,-0.04914000257849693,-0.3658200204372406,0.0,0.0,0.0,0.0,0.0,0.0,False,0,1414
0.0,0.0,0.0,0.0,0.0,0.0,0.0,0.0,0.0,-0.001953125,1.00048828125,0.234375,0.0,0.0,0.0,False,0,1415
0.0,0.0,0.0,0.0,0.0,0.0,0.0,0.0,0.0,0.0,0.0,0.0,0.0,0.0,0.0,False,0,1412
-0.9896639585494995,-0.013907999731600285,0.18665999174118042,1.5924999713897705,-2.7300000190734863,1.3212499618530273,-0.1681400090456009,-0.052080001682043076,-0.36456000804901123,0.0,0.0,0.0,0.0,0.0,0.0,False,0,1431
0.0,0.0,0.0,0.0,0.0,0.0,0.0,0.0,0.0,0.0078125,1.0048828125,0.22265625,0.0,0.0,0.0,False,0,1432
0.0,0.0,0.0,0.0,0.0,0.0,0.0,0.0,0.0,0.0,0.0,0.0,0.0,0.0,0.0,False,0,1429
-0.9918599724769592,-0.013907999731600285,0.17494799196720123,1.4874999523162842,-2.7387499809265137,1.4175000190734863,-0.173320010304451,-0.05544000118970871,-0.35378000140190125,0.0,0.0,0.0,0.0,0.0,0.0,False,0,1448
0.0,0.0,0.0,0.0,0.0,0.0,0.0,0.0,0.0,-0.00341796875,0.97802734375,0.22314453125,0.0,0.0,0.0,False,0,1449
0.0,0.0,0.0,0.0,0.0,0.0,0.0,0.0,0.0,0.0,0.0,0.0,0.0,0.0,0.0,False,0,1446
-0.9947879910469055,-0.02122800052165985,0.18373200297355652,1.618749976158142,-2.5112500190734863,1.4524999856948853,-0.16393999755382538,-0.05894000083208084,-0.3557400107383728,0.0,0.0,0.0,0.0,0.0,0.0,False,0,1466
0.0,0.0,0.0,0.0,0.0,0.0,0.0,0.0,0.0,-0.0009765625,0.9892578125,0.20751953125,0.0,0.0,0.0,False,0,1467
0.0,0.0,0.0,0.0,0.0,0.0,0.0,0.0,0.0,0.0,0.0,0.0,0.0,0.0,0.0,False,0,1464
-1.0043039321899414,-0.018300000578165054,0.17641200125217438,1.5924999713897705,-2.651250123977661,1.4524999856948853,-0.1576400101184845,-0.05334000289440155,-0.3605000078678131,0.0,0.0,0.0,0.0,0.0,0.0,False,0,1483
0.0,0.0,0.0,0.0,0.0,0.0,0.0,0.0,0.0,0.0126953125,0.9970703125,0.19970703125,0.0,0.0,0.0,False,0,1484
0.0,0.0,0.0,0.0,0.0,0.0,0.0,0.0,0.0,0.0,0.0,0.0,0.0,0.0,0.0,False,0,1481
-0.9955199956893921,-0.012443999759852886,0.18373200297355652,1.5399999618530273,-2.555000066757202,1.3650000095367432,-0.16576001048088074,-0.04676000028848648,-0.35882002115249634,0.0,0.0,0.0,0.0,0.0,0.0,False,0,1501
0.0,0.0,0.0,0.0,0.0,0.0,0.0,0.0,0.0,0.02392578125,0.986328125,0.203125,0.0,0.0,0.0,False,0,1502
0.0,0.0,0.0,0.0,0.0,0.0,0.0,0.0,0.0,0.0,0.0,0.0,0.0,0.0,0.0,False,0,1499
-0.9918599724769592,-0.01903199963271618,0.19178399443626404,1.496250033378601,-2.7825000286102295,1.2424999475479126,-0.16366000473499298,-0.052080001682043076,-0.3607800006866455,0.0,0.0,0.0,0.0,0.0,0.0,False,0,1518
0.0,0.0,0.0,0.0,0.0,0.0,0.0,0.0,0.0,0.01513671875,0.98974609375,0.2001953125,0.0,0.0,0.0,False,0,1519
0.0,0.0,0.0,0.0,0.0,0.0,0.0,0.0,0.0,0.0,0.0,0.0,0.0,0.0,0.0,False,0,1516
-0.9977160096168518,-0.025619998574256897,0.17714399099349976,1.5837500095367432,-2.9312500953674316,1.3037500381469727,-0.16576001048088074,-0.052640002220869064,-0.3600800037384033,0.0,0.0,0.0,0.0,0.0,0.0,False,0,1535
0.0,0.0,0.0,0.0,0.0,0.0,0.0,0.0,0.0,0.0166015625,0.99609375,0.1923828125,0.0,0.0,0.0,False,0,1536
0.0,0.0,0.0,0.0,0.0,0.0,0.0,0.0,0.0,0.0,0.0,0.0,0.0,0.0,0.0,False,0,1533
-1.0021079778671265,-0.011711999773979187,0.1756799966096878,1.5137499570846558,-2.598750114440918,1.4350000619888306,-0.1629600077867508,-0.051660001277923584,-0.35770002007484436,0.0,0.0,0.0,0.0,0.0,0.0,False,0,1554
0.0,0.0,0.0,0.0,0.0,0.0,0.0,0.0,0.0,0.00390625,0.98291015625,0.1845703125,0.0,0.0,0.0,False,0,1555
0.0,0.0,0.0,0.0,0.0,0.0,0.0,0.0,0.0,0.0,0.0,0.0,0.0,0.0,0.0,False,0,1552
-0.9911279678344727,-0.011711999773979187,0.17787599563598633,1.4524999856948853,-2.703749895095825,1.4350000619888306,-0.1624000072479248,-0.054740000516176224,-0.356440007686615,0.0,0.0,0.0,0.0,0.0,0.0,False,0,1571
0.0,0.0,0.0,0.0,0.0,0.0,0.0,0.0,0.0,0.01513671875,0.99072265625,0.1943359375,0.0,0.0,0.0,False,0,1572
0.0,0.0,0.0,0.0,0.0,0.0,0.0,0.0,0.0,0.0,0.0,0.0,0.0,0.0,0.0,False,0,1569
-0.986735999584198,-0.016835998743772507,0.1786080002784729,1.5575000047683716,-2.7387499809265137,1.128749966621399,-0.1681400090456009,-0.05250000208616257,-0.3495800197124481,0.0,0.0,0.0,0.0,0.0,0.0,False,0,1589
0.0,0.0,0.0,0.0,0.0,0.0,0.0,0.0,0.0,0.00390625,0.9990234375,0.19384765625,0.0,0.0,0.0,False,0,1590
0.0,0.0,0.0,0.0,0.0,0.0,0.0,0.0,0.0,0.0,0.0,0.0,0.0,0.0,0.0,False,0,1587
-0.9823439717292786,-0.024887999519705772,0.19324800372123718,1.5487500429153442,-2.6075000762939453,1.277500033378601,-0.16449999809265137,-0.05278000235557556,-0.3561600148677826,0.0,0.0,0.0,0.0,0.0,0.0,False,0,1606
0.0,0.0,0.0,0.0,0.0,0.0,0.0,0.0,0.0,-0.00341796875,0.99853515625,0.203125,0.0,0.0,0.0,False,0,1607
0.0,0.0,0.0,0.0,0.0,0.0,0.0,0.0,0.0,0.0,0.0,0.0,0.0,0.0,0.0,False,0,1604
-0.9903959631919861,-0.016835998743772507,0.18007199466228485,1.5137499570846558,-2.502500057220459,1.399999976158142,-0.1624000072479248,-0.05040000006556511,-0.36329999566078186,0.0,0.0,0.0,0.0,0.0,0.0,False,0,1623
0.0,0.0,0.0,0.0,0.0,0.0,0.0,0.0,0.0,0.001953125,0.99853515625,0.2001953125,0.0,0.0,0.0,False,0,1624
0.0,0.0,0.0,0.0,0.0,0.0,0.0,0.0,0.0,0.0,0.0,0.0,0.0,0.0,0.0,False,0,1621
-1.0006439685821533,-0.032207999378442764,0.1983719915151596,1.6100000143051147,-2.4149999618530273,1.2512500286102295,-0.1682800054550171,-0.048580002039670944,-0.3546200096607208,0.0,0.0,0.0,0.0,0.0,0.0,False,0,1641
0.0,0.0,0.0,0.0,0.0,0.0,0.0,0.0,0.0,0.013671875,1.00390625,0.19677734375,0.0,0.0,0.0,False,0,1642
0.0,0.0,0.0,0.0,0.0,0.0,0.0,0.0,0.0,0.0,0.0,0.0,0.0,0.0,0.0,False,0,1639
-0.994055986404419,-0.01756799966096878,0.18299999833106995,1.75,-2.3887500762939453,1.3650000095367432,-0.16505999863147736,-0.0509600006043911,-0.3570000231266022,0.0,0.0,0.0,0.0,0.0,0.0,False,0,1658
0.0,0.0,0.0,0.0,0.0,0.0,0.0,0.0,0.0,0.01904296875,1.00537109375,0.19580078125,0.0,0.0,0.0,False,0,1659
0.0,0.0,0.0,0.0,0.0,0.0,0.0,0.0,0.0,0.0,0.0,0.0,0.0,0.0,0.0,False,0,1656
-0.9903959631919861,-0.008051999844610691,0.19397999346256256,1.7324999570846558,-2.546250104904175,1.3912500143051147,-0.16660000383853912,-0.04886000230908394,-0.35322001576423645,0.0,0.0,0.0,0.0,0.0,0.0,False,0,1676
0.0,0.0,0.0,0.0,0.0,0.0,0.0,0.0,0.0,0.00341796875,0.98193359375,0.19482421875,0.0,0.0,0.0,False,0,1677
0.0,0.0,0.0,0.0,0.0,0.0,0.0,0.0,0.0,0.0,0.0,0.0,0.0,0.0,0.0,False,0,1674
-0.9882000088691711,-0.016103999689221382,0.17128799855709076,1.7412500381469727,-2.572499990463257,1.3300000429153442,-0.1671600043773651,-0.04522000253200531,-0.3570000231266022,0.0,0.0,0.0,0.0,0.0,0.0,False,0,1693
0.0,0.0,0.0,0.0,0.0,0.0,0.0,0.0,0.0,-0.0107421875,1.00537109375,0.21337890625,0.0,0.0,0.0,False,0,1694
0.0,0.0,0.0,0.0,0.0,0.0,0.0,0.0,0.0,0.0,0.0,0.0,0.0,0.0,0.0,False,0,1691
-0.9925919771194458,-0.01756799966096878,0.18007199466228485,1.5487500429153442,-2.2925000190734863,1.4262499809265137,-0.17373999953269958,-0.05389999970793724,-0.3549000024795532,0.0,0.0,0.0,0.0,0.0,0.0,False,0,1710
0.0,0.0,0.0,0.0,0.0,0.0,0.0,0.0,0.0,0.001953125,1.0185546875,0.1953125,0.0,0.0,0.0,False,0,1711
0.0,0.0,0.0,0.0,0.0,0.0,0.0,0.0,0.0,0.0,0.0,0.0,0.0,0.0,0.0,False,0,1708
-0.9911279678344727,-0.007319999858736992,0.187391996383667,1.8287500143051147,-2.3450000286102295,1.277500033378601,-0.1684200018644333,-0.05320000275969505,-0.3519600033760071,0.0,0.0,0.0,0.0,0.0,0.0,False,0,1729
0.0,0.0,0.0,0.0,0.0,0.0,0.0,0.0,0.0,-0.0146484375,0.9921875,0.21728515625,0.0,0.0,0.0,False,0,1730
0.0,0.0,0.0,0.0,0.0,0.0,0.0,0.0,0.0,0.0,0.0,0.0,0.0,0.0,0.0,False,0,1727
-0.994055986404419,-0.013907999731600285,0.19764000177383423,1.6100000143051147,-2.432500123977661,1.2949999570846558,-0.16352000832557678,-0.055720001459121704,-0.35406002402305603,0.0,0.0,0.0,0.0,0.0,0.0,False,0,1746
0.0,0.0,0.0,0.0,0.0,0.0,0.0,0.0,0.0,-0.01220703125,0.9775390625,0.220703125,0.0,0.0,0.0,False,0,1747
0.0,0.0,0.0,0.0,0.0,0.0,0.0,0.0,0.0,0.0,0.0,0.0,0.0,0.0,0.0,False,0,1744
-0.994055986404419,-0.016835998743772507,0.18519599735736847,1.3212499618530273,-2.2750000953674316,1.3825000524520874,-0.16198000311851501,-0.051660001277923584,-0.3561600148677826,0.0,0.0,0.0,0.0,0.0,0.0,False,0,1764
0.0,0.0,0.0,0.0,0.0,0.0,0.0,0.0,0.0,-0.00537109375,0.9794921875,0.212890625,0.0,0.0,0.0,False,0,1765
0.0,0.0,0.0,0.0,0.0,0.0,0.0,0.0,0.0,0.0,0.0,0.0,0.0,0.0,0.0,False,0,1762
-0.9925919771194458,-0.024156000465154648,0.18592800199985504,1.627500057220459,-2.2750000953674316,1.2949999570846558,-0.16058000922203064,-0.04914000257849693,-0.35965999960899353,0.0,0.0,0.0,0.0,0.0,0.0,False,0,1781
0.0,0.0,0.0,0.0,0.0,0.0,0.0,0.0,0.0,-0.0029296875,0.99267578125,0.21142578125,0.0,0.0,0.0,False,0,1782
0.0,0.0,0.0,0.0,0.0,0.0,0.0,0.0,0.0,0.0,0.0,0.0,0.0,0.0,0.0,False,0,1779
-0.9947879910469055,-0.011711999773979187,0.18299999833106995,1.8025000095367432,-2.502500057220459,1.4612499475479126,-0.16449999809265137,-0.047600001096725464,-0.32396000623703003,0.0,0.0,0.0,0.0,0.0,0.0,False,0,1798
0.0,0.0,0.0,0.0,0.0,0.0,0.0,0.0,0.0,0.0,0.98486328125,0.22119140625,0.0,0.0,0.0,False,0,1799
0.0,0.0,0.0,0.0,0.0,0.0,0.0,0.0,0.0,0.0,0.0,0.0,0.0,0.0,0.0,False,0,1796
-0.9889319539070129,-0.00878399983048439,0.18373200297355652,1.4262499809265137,-2.450000047683716,1.2949999570846558,-0.16520000994205475,-0.04914000257849693,-0.3515399992465973,0.0,0.0,0.0,0.0,0.0,0.0,False,0,1816
0.0,0.0,0.0,0.0,0.0,0.0,0.0,0.0,0.0,-0.0078125,0.97021484375,0.22412109375,0.0,0.0,0.0,False,0,1817
0.0,0.0,0.0,0.0,0.0,0.0,0.0,0.0,0.0,0.0,0.0,0.0,0.0,0.0,0.0,False,0,1814
-0.986735999584198,-0.016103999689221382,0.18373200297355652,1.6712499856948853,-2.476249933242798,1.225000023841858,-0.16408000886440277,-0.05222000181674957,-0.3565800189971924,0.0,0.0,0.0,0.0,0.0,0.0,False,0,1833
0.0,0.0,0.0,0.0,0.0,0.0,0.0,0.0,0.0,0.0029296875,0.97998046875,0.21630859375,0.0,0.0,0.0,False,0,1834
0.0,0.0,0.0,0.0,0.0,0.0,0.0,0.0,0.0,0.0,0.0,0.0,0.0,0.0,0.0,False,0,1831
-1.0006439685821533,-0.029279999434947968,0.17933999001979828,1.8287500143051147,-2.362499952316284,1.3212499618530273,-0.16561999917030334,-0.05375999957323074,-0.35923999547958374,0.0,0.0,0.0,0.0,0.0,0.0,False,0,1851
0.0,0.0,0.0,0.0,0.0,0.0,0.0,0.0,0.0,-0.0048828125,0.98583984375,0.21875,0.0,0.0,0.0,False,0,1852
0.0,0.0,0.0,0.0,0.0,0.0,0.0,0.0,0.0,0.0,0.0,0.0,0.0,0.0,0.0,False,0,1849
-0.9955199956893921,-0.018300000578165054,0.17641200125217438,1.5049999952316284,-2.5199999809265137,1.2074999809265137,-0.1626800000667572,-0.05446000024676323,-0.3546200096607208,0.0,0.0,0.0,0.0,0.0,0.0,False,0,1868
0.0,0.0,0.0,0.0,0.0,0.0,0.0,0.0,0.0,0.0,0.9873046875,0.21484375,0.0,0.0,0.0,False,0,1869
0.0,0.0,0.0,0.0,0.0,0.0,0.0,0.0,0.0,0.0,0.0,0.0,0.0,0.0,0.0,False,0,1866
-0.9984479546546936,-0.008051999844610691,0.1815359890460968,1.6449999809265137,-2.450000047683716,1.3825000524520874,-0.16534000635147095,-0.05488000065088272,-0.3570000231266022,0.0,0.0,0.0,0.0,0.0,0.0,False,0,1885
0.0,0.0,0.0,0.0,0.0,0.0,0.0,0.0,0.0,-0.001953125,0.99267578125,0.2021484375,0.0,0.0,0.0,False,0,1886
0.0,0.0,0.0,0.0,0.0,0.0,0.0,0.0,0.0,0.0,0.0,0.0,0.0,0.0,0.0,False,0,1883
-0.9889319539070129,-0.0226919986307621,0.18226799368858337,1.8987500667572021,-2.7125000953674316,1.3825000524520874,-0.16002000868320465,-0.04983999952673912,-0.35378000140190125,0.0,0.0,0.0,0.0,0.0,0.0,False,0,1903
0.0,0.0,0.0,0.0,0.0,0.0,0.0,0.0,0.0,0.0009765625,0.98095703125,0.2021484375,0.0,0.0,0.0,False,0,1904
0.0,0.0,0.0,0.0,0.0,0.0,0.0,0.0,0.0,0.0,0.0,0.0,0.0,0.0,0.0,False,0,1901
-0.9889319539070129,-0.0226919986307621,0.18299999833106995,1.715000033378601,-2.6075000762939453,1.3912500143051147,-0.16043999791145325,-0.05250000208616257,-0.34888002276420593,0.0,0.0,0.0,0.0,0.0,0.0,False,0,1920
0.0,0.0,0.0,0.0,0.0,0.0,0.0,0.0,0.0,0.00439453125,0.9921875,0.19873046875,0.0,0.0,0.0,False,0,1921
0.0,0.0,0.0,0.0,0.0,0.0,0.0,0.0,0.0,0.0,0.0,0.0,0.0,0.0,0.0,False,0,1918
-0.9991799592971802,-0.016835998743772507,0.18299999833106995,1.5049999952316284,-2.3975000381469727,1.399999976158142,-0.16058000922203064,-0.044520001858472824,-0.35406002402305603,0.0,0.0,0.0,0.0,0.0,0.0,False,0,1938
0.0,0.0,0.0,0.0,0.0,0.0,0.0,0.0,0.0,0.00146484375,1.0,0.2060546875,0.0,0.0,0.0,False,0,1939
0.0,0.0,0.0,0.0,0.0,0.0,0.0,0.0,0.0,0.0,0.0,0.0,0.0,0.0,0.0,False,0,1936
-0.9947879910469055,-0.005123999901115894,0.19105198979377747,1.4612499475479126,-2.6424999237060547,1.347499966621399,-0.162540003657341,-0.04914000257849693,-0.35308000445365906,0.0,0.0,0.0,0.0,0.0,0.0,False,0,1955
0.0,0.0,0.0,0.0,0.0,0.0,0.0,0.0,0.0,-0.00927734375,1.005859375,0.19775390625,0.0,0.0,0.0,False,0,1956
0.0,0.0,0.0,0.0,0.0,0.0,0.0,0.0,0.0,0.0,0.0,0.0,0.0,0.0,0.0,False,0,1953
-0.994055986404419,-0.012443999759852886,0.1786080002784729,1.5487500429153442,-2.555000066757202,1.3825000524520874,-0.16492000222206116,-0.050119999796152115,-0.3613400161266327,0.0,0.0,0.0,0.0,0.0,0.0,False,0,1972
0.0,0.0,0.0,0.0,0.0,0.0,0.0,0.0,0.0,-0.00341796875,1.0068359375,0.1923828125,0.0,0.0,0.0,False,0,1973
0.0,0.0,0.0,0.0,0.0,0.0,0.0,0.0,0.0,0.0,0.0,0.0,0.0,0.0,0.0,False,0,1970
-0.9882000088691711,-0.006587999872863293,0.18592800199985504,1.5049999952316284,-2.3012499809265137,1.4175000190734863,-0.16617999970912933,-0.05334000289440155,-0.3613400161266327,0.0,0.0,0.0,0.0,0.0,0.0,False,0,1990
0.0,0.0,0.0,0.0,0.0,0.0,0.0,0.0,0.0,-0.0009765625,0.98779296875,0.20458984375,0.0,0.0,0.0,False,0,1991
0.0,0.0,0.0,0.0,0.0,0.0,0.0,0.0,0.0,0.0,0.0,0.0,0.0,0.0,0.0,False,0,1988
-0.9903959631919861,-0.01756799966096878,0.18080399930477142,1.6100000143051147,-2.625,1.3387500047683716,-0.16505999863147736,-0.05292000249028206,-0.3558800220489502,0.0,0.0,0.0,0.0,0.0,0.0,False,0,2007
0.0,0.0,0.0,0.0,0.0,0.0,0.0,0.0,0.0,-0.0009765625,0.9921875,0.22119140625,0.0,0.0,0.0,False,0,2008
0.0,0.0,0.0,0.0,0.0,0.0,0.0,0.0,0.0,0.0,0.0,0.0,0.0,0.0,0.0,False,0,2005
-0.9911279678344727,-0.00951599981635809,0.1903200000524521,1.618749976158142,-2.799999952316284,1.225000023841858,-0.16982001066207886,-0.04886000230908394,-0.35868000984191895,0.0,0.0,0.0,0.0,0.0,0.0,False,0,2025
0.0,0.0,0.0,0.0,0.0,0.0,0.0,0.0,0.0,0.00830078125,0.99560546875,0.20703125,0.0,0.0,0.0,False,0,2026
0.0,0.0,0.0,0.0,0.0,0.0,0.0,0.0,0.0,0.0,0.0,0.0,0.0,0.0,0.0,False,0,2023
-0.9896639585494995,-0.013907999731600285,0.18373200297355652,1.662500023841858,-2.3887500762939453,1.3387500047683716,-0.16184000670909882,-0.04928000271320343,-0.35406002402305603,0.0,0.0,0.0,0.0,0.0,0.0,False,0,2042
0.0,0.0,0.0,0.0,0.0,0.0,0.0,0.0,0.0,-0.00390625,0.99365234375,0.21142578125,0.0,0.0,0.0,False,0,2043
0.0,0.0,0.0,0.0,0.0,0.0,0.0,0.0,0.0,0.0,0.0,0.0,0.0,0.0,0.0,False,0,2040
-0.9874680042266846,-0.015371999703347683,0.1844639927148819,1.6974999904632568,-2.3975000381469727,1.408750057220459,-0.16366000473499298,-0.05292000249028206,-0.3501400053501129,0.0,0.0,0.0,0.0,0.0,0.0,False,0,2059
0.0,0.0,0.0,0.0,0.0,0.0,0.0,0.0,0.0,0.0,0.984375,0.23095703125,0.0,0.0,0.0,False,0,2060
0.0,0.0,0.0,0.0,0.0,0.0,0.0,0.0,0.0,0.0,0.0,0.0,0.0,0.0,0.0,False,0,2057
-0.9903959631919861,-0.016103999689221382,0.18226799368858337,1.5575000047683716,-2.4937500953674316,1.2862499952316284,-0.16954000294208527,-0.04830000177025795,-0.3509800136089325,0.0,0.0,0.0,0.0,0.0,0.0,False,0,2077
0.0,0.0,0.0,0.0,0.0,0.0,0.0,0.0,0.0,0.00634765625,0.9755859375,0.2373046875,0.0,0.0,0.0,False,0,2078
0.0,0.0,0.0,0.0,0.0,0.0,0.0,0.0,0.0,0.0,0.0,0.0,0.0,0.0,0.0,False,0,2075
-0.9903959631919861,-0.010247999802231789,0.18592800199985504,1.7062499523162842,-2.7562499046325684,1.1200000047683716,-0.16561999917030334,-0.04690000042319298,-0.3521000146865845,0.0,0.0,0.0,0.0,0.0,0.0,False,0,2094
0.0,0.0,0.0,0.0,0.0,0.0,0.0,0.0,0.0,-0.00537109375,0.9951171875,0.22216796875,0.0,0.0,0.0,False,0,2095
0.0,0.0,0.0,0.0,0.0,0.0,0.0,0.0,0.0,0.0,0.0,0.0,0.0,0.0,0.0,False,0,2092
-0.9896639585494995,-0.013175999745726585,0.1786080002784729,1.399999976158142,-2.598750114440918,1.4874999523162842,-0.16520000994205475,-0.052080001682043076,-0.35938000679016113,0.0,0.0,0.0,0.0,0.0,0.0,False,0,2112
0.0,0.0,0.0,0.0,0.0,0.0,0.0,0.0,0.0,-0.009765625,1.00439453125,0.2138671875,0.0,0.0,0.0,False,0,2113
0.0,0.0,0.0,0.0,0.0,0.0,0.0,0.0,0.0,0.0,0.0,0.0,0.0,0.0,0.0,False,0,2110
-0.9999119639396667,-0.024156000465154648,0.18519599735736847,1.8112499713897705,-2.7125000953674316,1.347499966621399,-0.16492000222206116,-0.050119999796152115,-0.34874001145362854,0.0,0.0,0.0,0.0,0.0,0.0,False,0,2129
0.0,0.0,0.0,0.0,0.0,0.0,0.0,0.0,0.0,-0.01611328125,0.99951171875,0.22216796875,0.0,0.0,0.0,False,0,2130
0.0,0.0,0.0,0.0,0.0,0.0,0.0,0.0,0.0,0.0,0.0,0.0,0.0,0.0,0.0,False,0,2127
-0.9962520003318787,-0.013175999745726585,0.19178399443626404,1.3387500047683716,-2.2925000190734863,1.3387500047683716,-0.16688001155853271,-0.05236000195145607,-0.35335999727249146,0.0,0.0,0.0,0.0,0.0,0.0,False,0,2146
0.0,0.0,0.0,0.0,0.0,0.0,0.0,0.0,0.0,-0.013671875,0.99169921875,0.21240234375,0.0,0.0,0.0,False,0,2147
0.0,0.0,0.0,0.0,0.0,0.0,0.0,0.0,0.0,0.0,0.0,0.0,0.0,0.0,0.0,False,0,2144
-0.9896639585494995,-0.019763998687267303,0.18007199466228485,1.7062499523162842,-2.283750057220459,1.4524999856948853,-0.16478000581264496,-0.05236000195145607,-0.3521000146865845,0.0,0.0,0.0,0.0,0.0,0.0,False,0,2164
0.0,0.0,0.0,0.0,0.0,0.0,0.0,0.0,0.0,-0.00048828125,0.9921875,0.20166015625,0.0,0.0,0.0,False,0,2165
0.0,0.0,0.0,0.0,0.0,0.0,0.0,0.0,0.0,0.0,0.0,0.0,0.0,0.0,0.0,False,0,2162
-0.9925919771194458,-0.02122800052165985,0.18373200297355652,1.6800000667572021,-2.528749942779541,1.2337499856948853,-0.16996000707149506,-0.05642000213265419,-0.35392001271247864,0.0,0.0,0.0,0.0,0.0,0.0,False,0,2181
0.0,0.0,0.0,0.0,0.0,0.0,0.0,0.0,0.0,0.01123046875,0.994140625,0.208984375,0.0,0.0,0.0,False,0,2182
0.0,0.0,0.0,0.0,0.0,0.0,0.0,0.0,0.0,0.0,0.0,0.0,0.0,0.0,0.0,False,0,2179
-0.9962520003318787,-0.01756799966096878,0.18373200297355652,1.662500023841858,-2.747499942779541,1.3562500476837158,-0.17094001173973083,-0.05025999993085861,-0.34846001863479614,0.0,0.0,0.0,0.0,0.0,0.0,False,0,2199
0.0,0.0,0.0,0.0,0.0,0.0,0.0,0.0,0.0,-0.0087890625,0.98486328125,0.21875,0.0,0.0,0.0,False,0,2200
0.0,0.0,0.0,0.0,0.0,0.0,0.0,0.0,0.0,0.0,0.0,0.0,0.0,0.0,0.0,False,0,2197
-0.9984479546546936,-0.02122800052165985,0.17787599563598633,1.7324999570846558,-2.572499990463257,1.2074999809265137,-0.17149999737739563,-0.04942000284790993,-0.3509800136089325,0.0,0.0,0.0,0.0,0.0,0.0,False,0,2216
0.0,0.0,0.0,0.0,0.0,0.0,0.0,0.0,0.0,-0.0166015625,0.99072265625,0.20654296875,0.0,0.0,0.0,False,0,2217
0.0,0.0,0.0,0.0,0.0,0.0,0.0,0.0,0.0,0.0,0.0,0.0,0.0,0.0,0.0,False,0,2214
-0.9947879910469055,-0.01903199963271618,0.18373200297355652,1.4175000190734863,-2.3887500762939453,1.443750023841858,-0.1679999977350235,-0.046059999614953995,-0.34188002347946167,0.0,0.0,0.0,0.0,0.0,0.0,False,0,2233
0.0,0.0,0.0,0.0,0.0,0.0,0.0,0.0,0.0,-0.02001953125,0.98046875,0.2119140625,0.0,0.0,0.0,False,0,2234
0.0,0.0,0.0,0.0,0.0,0.0,0.0,0.0,0.0,0.0,0.0,0.0,0.0,0.0,0.0,False,0,2231
-0.9955199956893921,-0.020495999604463577,0.18080399930477142,1.6537500619888306,-2.502500057220459,1.1200000047683716,-0.16884000599384308,-0.05138000100851059,-0.3555999994277954,0.0,0.0,0.0,0.0,0.0,0.0,False,0,2251
0.0,0.0,0.0,0.0,0.0,0.0,0.0,0.0,0.0,-0.01025390625,0.9912109375,0.2060546875,0.0,0.0,0.0,False,0,2252
0.0,0.0,0.0,0.0,0.0,0.0,0.0,0.0,0.0,0.0,0.0,0.0,0.0,0.0,0.0,False,0,2249
-0.9911279678344727,-0.024887999519705772,0.1844639927148819,1.5750000476837158,-2.6862499713897705,1.3650000095367432,-0.16660000383853912,-0.05124000087380409,-0.3609200119972229,0.0,0.0,0.0,0.0,0.0,0.0,False,0,2268
0.0,0.0,0.0,0.0,0.0,0.0,0.0,0.0,0.0,-0.01025390625,0.99365234375,0.21142578125,0.0,0.0,0.0,False,0,2269
0.0,0.0,0.0,0.0,0.0,0.0,0.0,0.0,0.0,0.0,0.0,0.0,0.0,0.0,0.0,False,0,2266
-1.0035719871520996,-0.016835998743772507,0.18373200297355652,1.4262499809265137,-2.450000047683716,1.1725000143051147,-0.15960000455379486,-0.05138000100851059,-0.35378000140190125,0.0,0.0,0.0,0.0,0.0,0.0,False,0,2286
0.0,0.0,0.0,0.0,0.0,0.0,0.0,0.0,0.0,-0.0078125,0.99951171875,0.20751953125,0.0,0.0,0.0,False,0,2287
0.0,0.0,0.0,0.0,0.0,0.0,0.0,0.0,0.0,0.0,0.0,0.0,0.0,0.0,0.0,False,0,2284
-0.9991799592971802,-0.016103999689221382,0.1903200000524521,1.4874999523162842,-2.5899999141693115,1.1200000047683716,-0.16478000581264496,-0.05040000006556511,-0.3472000062465668,0.0,0.0,0.0,0.0,0.0,0.0,False,0,2303
0.0,0.0,0.0,0.0,0.0,0.0,0.0,0.0,0.0,-0.01416015625,1.0078125,0.2119140625,0.0,0.0,0.0,False,0,2304
0.0,0.0,0.0,0.0,0.0,0.0,0.0,0.0,0.0,0.0,0.0,0.0,0.0,0.0,0.0,False,0,2301
-0.9962520003318787,-0.013175999745726585,0.18007199466228485,1.6449999809265137,-2.3187499046325684,1.408750057220459,-0.1681400090456009,-0.05194000154733658,-0.34747999906539917,0.0,0.0,0.0,0.0,0.0,0.0,False,0,2320
0.0,0.0,0.0,0.0,0.0,0.0,0.0,0.0,0.0,-0.0078125,1.0068359375,0.20947265625,0.0,0.0,0.0,False,0,2321
0.0,0.0,0.0,0.0,0.0,0.0,0.0,0.0,0.0,0.0,0.0,0.0,0.0,0.0,0.0,False,0,2318
-0.9911279678344727,-0.01903199963271618,0.18665999174118042,1.6974999904632568,-2.327500104904175,1.3300000429153442,-0.1673000007867813,-0.05025999993085861,-0.34426000714302063,0.0,0.0,0.0,0.0,0.0,0.0,False,0,2338
0.0,0.0,0.0,0.0,0.0,0.0,0.0,0.0,0.0,-0.0068359375,0.9892578125,0.2138671875,0.0,0.0,0.0,False,0,2339
0.0,0.0,0.0,0.0,0.0,0.0,0.0,0.0,0.0,0.0,0.0,0.0,0.0,0.0,0.0,False,0,2336
-0.9962520003318787,-0.013907999731600285,0.18885599076747894,1.3912500143051147,-2.694999933242798,1.3912500143051147,-0.16926001012325287,-0.05250000208616257,-0.3514000177383423,0.0,0.0,0.0,0.0,0.0,0.0,False,0,2355
0.0,0.0,0.0,0.0,0.0,0.0,0.0,0.0,0.0,-0.017578125,0.99169921875,0.20703125,0.0,0.0,0.0,False,0,2356
0.0,0.0,0.0,0.0,0.0,0.0,0.0,0.0,0.0,0.0,0.0,0.0,0.0,0.0,0.0,False,0,2353
-0.9903959631919861,-0.013907999731600285,0.1756799966096878,1.7412500381469727,-2.625,1.4262499809265137,-0.16534000635147095,-0.045500002801418304,-0.3574199974536896,0.0,0.0,0.0,0.0,0.0,0.0,False,0,2372
0.0,0.0,0.0,0.0,0.0,0.0,0.0,0.0,0.0,-0.013671875,0.99365234375,0.2080078125,0.0,0.0,0.0,False,0,2373
0.0,0.0,0.0,0.0,0.0,0.0,0.0,0.0,0.0,0.0,0.0,0.0,0.0,0.0,0.0,False,0,2370
-0.9882000088691711,-0.010247999802231789,0.18007199466228485,1.2949999570846558,-2.6600000858306885,1.3650000095367432,-0.1675800085067749,-0.05025999993085861,-0.35784000158309937,0.0,0.0,0.0,0.0,0.0,0.0,False,0,2390
0.0,0.0,0.0,0.0,0.0,0.0,0.0,0.0,0.0,-0.01513671875,0.9658203125,0.212890625,0.0,0.0,0.0,False,0,2391
0.0,0.0,0.0,0.0,0.0,0.0,0.0,0.0,0.0,0.0,0.0,0.0,0.0,0.0,0.0,False,0,2388
-0.9955199956893921,-0.012443999759852886,0.1844639927148819,1.627500057220459,-2.677500009536743,1.2949999570846558,-0.16632001101970673,-0.05348000302910805,-0.35447999835014343,0.0,0.0,0.0,0.0,0.0,0.0,False,0,2407
0.0,0.0,0.0,0.0,0.0,0.0,0.0,0.0,0.0,-0.0048828125,0.98193359375,0.20556640625,0.0,0.0,0.0,False,0,2408
0.0,0.0,0.0,0.0,0.0,0.0,0.0,0.0,0.0,0.0,0.0,0.0,0.0,0.0,0.0,False,0,2405
-0.9896639585494995,-0.019763998687267303,0.2012999951839447,1.5924999713897705,-2.450000047683716,1.3212499618530273,-0.1573600023984909,-0.05375999957323074,-0.3555999994277954,0.0,0.0,0.0,0.0,0.0,0.0,False,0,2425
0.0,0.0,0.0,0.0,0.0,0.0,0.0,0.0,0.0,-0.00390625,0.99267578125,0.20556640625,0.0,0.0,0.0,False,0,2426
0.0,0.0,0.0,0.0,0.0,0.0,0.0,0.0,0.0,0.0,0.0,0.0,0.0,0.0,0.0,False,0,2423
-0.9903959631919861,-0.01756799966096878,0.18885599076747894,1.618749976158142,-2.6075000762939453,1.3037500381469727,-0.15931999683380127,-0.054740000516176224,-0.35322001576423645,0.0,0.0,0.0,0.0,0.0,0.0,False,0,2442
0.0,0.0,0.0,0.0,0.0,0.0,0.0,0.0,0.0,-0.0126953125,0.986328125,0.21435546875,0.0,0.0,0.0,False,0,2443
0.0,0.0,0.0,0.0,0.0,0.0,0.0,0.0,0.0,0.0,0.0,0.0,0.0,0.0,0.0,False,0,2440
-0.9925919771194458,-0.016103999689221382,0.17787599563598633,1.627500057220459,-2.625,1.399999976158142,-0.16967999935150146,-0.05530000105500221,-0.35406002402305603,0.0,0.0,0.0,0.0,0.0,0.0,False,0,2459
0.0,0.0,0.0,0.0,0.0,0.0,0.0,0.0,0.0,0.009765625,0.99072265625,0.20458984375,0.0,0.0,0.0,False,0,2460
0.0,0.0,0.0,0.0,0.0,0.0,0.0,0.0,0.0,0.0,0.0,0.0,0.0,0.0,0.0,False,0,2457
-0.9896639585494995,-0.021959999576210976,0.187391996383667,1.6449999809265137,-2.528749942779541,1.566249966621399,-0.16155999898910522,-0.04844000190496445,-0.3469200134277344,0.0,0.0,0.0,0.0,0.0,0.0,False,0,2482
0.0,0.0,0.0,0.0,0.0,0.0,0.0,0.0,0.0,-0.00390625,1.00146484375,0.20556640625,0.0,0.0,0.0,False,0,2483
0.0,0.0,0.0,0.0,0.0,0.0,0.0,0.0,0.0,0.0,0.0,0.0,0.0,0.0,0.0,False,0,2480
-0.9969840049743652,-0.013175999745726585,0.18226799368858337,1.5399999618530273,-2.432500123977661,1.3125,-0.16380000114440918,-0.052080001682043076,-0.3514000177383423,0.0,0.0,0.0,0.0,0.0,0.0,False,0,2499
0.0,0.0,0.0,0.0,0.0,0.0,0.0,0.0,0.0,-0.00341796875,1.01513671875,0.20263671875,0.0,0.0,0.0,False,0,2500
0.0,0.0,0.0,0.0,0.0,0.0,0.0,0.0,0.0,0.0,0.0,0.0,0.0,0.0,0.0,False,0,2497
-0.9947879910469055,-0.013175999745726585,0.18592800199985504,1.8112499713897705,-2.625,1.408750057220459,-0.16534000635147095,-0.04774000123143196,-0.3514000177383423,0.0,0.0,0.0,0.0,0.0,0.0,False,0,2517
0.0,0.0,0.0,0.0,0.0,0.0,0.0,0.0,0.0,0.0,1.0009765625,0.19873046875,0.0,0.0,0.0,False,0,2518
0.0,0.0,0.0,0.0,0.0,0.0,0.0,0.0,0.0,0.0,0.0,0.0,0.0,0.0,0.0,False,0,2515
-0.9999119639396667,-0.01756799966096878,0.18885599076747894,1.5399999618530273,-2.8262500762939453,1.2862499952316284,-0.16155999898910522,-0.05124000087380409,-0.35420000553131104,0.0,0.0,0.0,0.0,0.0,0.0,False,0,2534
0.0,0.0,0.0,0.0,0.0,0.0,0.0,0.0,0.0,0.00927734375,0.98974609375,0.21044921875,0.0,0.0,0.0,False,0,2535
0.0,0.0,0.0,0.0,0.0,0.0,0.0,0.0,0.0,0.0,0.0,0.0,0.0,0.0,0.0,False,0,2532
-0.9947879910469055,-0.023423999547958374,0.187391996383667,1.6712499856948853,-2.7562499046325684,1.3825000524520874,-0.17149999737739563,-0.04690000042319298,-0.3511199951171875,0.0,0.0,0.0,0.0,0.0,0.0,False,0,2551
0.0,0.0,0.0,0.0,0.0,0.0,0.0,0.0,0.0,-0.00537109375,0.98193359375,0.21630859375,0.0,0.0,0.0,False,0,2552
0.0,0.0,0.0,0.0,0.0,0.0,0.0,0.0,0.0,0.0,0.0,0.0,0.0,0.0,0.0,False,0,2549
-0.9977160096168518,-0.012443999759852886,0.1954440027475357,1.5487500429153442,-2.6862499713897705,1.3037500381469727,-0.16688001155853271,-0.05544000118970871,-0.3519600033760071,0.0,0.0,0.0,0.0,0.0,0.0,False,0,2569
0.0,0.0,0.0,0.0,0.0,0.0,0.0,0.0,0.0,-0.02001953125,0.98583984375,0.21923828125,0.0,0.0,0.0,False,0,2570
0.0,0.0,0.0,0.0,0.0,0.0,0.0,0.0,0.0,0.0,0.0,0.0,0.0,0.0,0.0,False,0,2567
-0.9918599724769592,-0.024156000465154648,0.19178399443626404,1.5049999952316284,-2.668750047683716,1.347499966621399,-0.1677200049161911,-0.05040000006556511,-0.3511199951171875,0.0,0.0,0.0,0.0,0.0,0.0,False,0,2586
0.0,0.0,0.0,0.0,0.0,0.0,0.0,0.0,0.0,-0.00830078125,0.99267578125,0.208984375,0.0,0.0,0.0,False,0,2587
0.0,0.0,0.0,0.0,0.0,0.0,0.0,0.0,0.0,0.0,0.0,0.0,0.0,0.0,0.0,False,0,2584
-0.9991799592971802,-0.023423999547958374,0.1756799966096878,1.6974999904632568,-2.6424999237060547,1.3825000524520874,-0.16940000653266907,-0.047600001096725464,-0.356440007686615,0.0,0.0,0.0,0.0,0.0,0.0,False,0,2604
0.0,0.0,0.0,0.0,0.0,0.0,0.0,0.0,0.0,-0.0146484375,0.9873046875,0.21630859375,0.0,0.0,0.0,False,0,2605
0.0,0.0,0.0,0.0,0.0,0.0,0.0,0.0,0.0,0.0,0.0,0.0,0.0,0.0,0.0,False,0,2602
-0.9925919771194458,-0.018300000578165054,0.1756799966096878,1.3387500047683716,-2.5899999141693115,1.4787499904632568,-0.16058000922203064,-0.05348000302910805,-0.3555999994277954,0.0,0.0,0.0,0.0,0.0,0.0,False,0,2621
0.0,0.0,0.0,0.0,0.0,0.0,0.0,0.0,0.0,-0.01513671875,0.994140625,0.20751953125,0.0,0.0,0.0,False,0,2622
0.0,0.0,0.0,0.0,0.0,0.0,0.0,0.0,0.0,0.0,0.0,0.0,0.0,0.0,0.0,False,0,2619
-0.994055986404419,-0.020495999604463577,0.19178399443626404,1.4700000286102295,-2.476249933242798,1.225000023841858,-0.1681400090456009,-0.04676000028848648,-0.3550400137901306,0.0,0.0,0.0,0.0,0.0,0.0,False,0,2638
0.0,0.0,0.0,0.0,0.0,0.0,0.0,0.0,0.0,-0.00732421875,0.982421875,0.2138671875,0.0,0.0,0.0,False,0,2639
0.0,0.0,0.0,0.0,0.0,0.0,0.0,0.0,0.0,0.0,0.0,0.0,0.0,0.0,0.0,False,0,2636
-0.9882000088691711,-0.020495999604463577,0.1903200000524521,1.5137499570846558,-2.940000057220459,1.3825000524520874,-0.1628200113773346,-0.050119999796152115,-0.3567200005054474,0.0,0.0,0.0,0.0,0.0,0.0,False,0,2656
0.0,0.0,0.0,0.0,0.0,0.0,0.0,0.0,0.0,-0.017578125,0.9697265625,0.2314453125,0.0,0.0,0.0,False,0,2657
0.0,0.0,0.0,0.0,0.0,0.0,0.0,0.0,0.0,0.0,0.0,0.0,0.0,0.0,0.0,False,0,2654
-1.024067997932434,-0.027084000408649445,0.187391996383667,1.566249966621399,-2.4937500953674316,1.5487500429153442,-0.1736000031232834,-0.04633999988436699,-0.3494400084018707,0.0,0.0,0.0,0.0,0.0,0.0,False,0,2673
0.0,0.0,0.0,0.0,0.0,0.0,0.0,0.0,0.0,-0.021484375,0.9697265625,0.20361328125,0.0,0.0,0.0,False,0,2674
0.0,0.0,0.0,0.0,0.0,0.0,0.0,0.0,0.0,0.0,0.0,0.0,0.0,0.0,0.0,False,0,2671
-1.0006439685821533,-0.016835998743772507,0.1983719915151596,2.3012499809265137,-1.9862500429153442,1.5575000047683716,-0.16898000240325928,-0.050680000334978104,-0.3550400137901306,0.0,0.0,0.0,0.0,0.0,0.0,False,0,2691
0.0,0.0,0.0,0.0,0.0,0.0,0.0,0.0,0.0,-0.01025390625,1.00146484375,0.2001953125,0.0,0.0,0.0,False,0,2692
0.0,0.0,0.0,0.0,0.0,0.0,0.0,0.0,0.0,0.0,0.0,0.0,0.0,0.0,0.0,False,0,2689
-0.9933239817619324,-0.01756799966096878,0.19617599248886108,2.5374999046325684,-1.6012500524520874,1.3737499713897705,-0.17205999791622162,-0.05180000141263008,-0.3565800189971924,0.0,0.0,0.0,0.0,0.0,0.0,False,0,2708
0.0,0.0,0.0,0.0,0.0,0.0,0.0,0.0,0.0,0.0009765625,1.01171875,0.18798828125,0.0,0.0,0.0,False,0,2709
0.0,0.0,0.0,0.0,0.0,0.0,0.0,0.0,0.0,0.0,0.0,0.0,0.0,0.0,0.0,False,0,2706
-0.986735999584198,-0.019763998687267303,0.17348399758338928,1.6887500286102295,-2.6424999237060547,1.3037500381469727,-0.16590000689029694,-0.0508200004696846,-0.34832000732421875,0.0,0.0,0.0,0.0,0.0,0.0,False,0,2725
0.0,0.0,0.0,0.0,0.0,0.0,0.0,0.0,0.0,-0.00439453125,1.00634765625,0.19873046875,0.0,0.0,0.0,False,0,2726
0.0,0.0,0.0,0.0,0.0,0.0,0.0,0.0,0.0,0.0,0.0,0.0,0.0,0.0,0.0,False,0,2723
-0.9896639585494995,-0.018300000578165054,0.16909199953079224,1.8637499809265137,-2.7825000286102295,1.53125,-0.16492000222206116,-0.05502000078558922,-0.3519600033760071,0.0,0.0,0.0,0.0,0.0,0.0,False,0,2743
0.0,0.0,0.0,0.0,0.0,0.0,0.0,0.0,0.0,-0.00390625,0.9990234375,0.20654296875,0.0,0.0,0.0,False,0,2744
0.0,0.0,0.0,0.0,0.0,0.0,0.0,0.0,0.0,0.0,0.0,0.0,0.0,0.0,0.0,False,0,2741
-0.9830759763717651,-0.016835998743772507,0.1756799966096878,1.6100000143051147,-2.6424999237060547,1.3737499713897705,-0.1626800000667572,-0.04997999966144562,-0.3554600179195404,0.0,0.0,0.0,0.0,0.0,0.0,False,0,2760
0.0,0.0,0.0,0.0,0.0,0.0,0.0,0.0,0.0,0.00244140625,1.005859375,0.19580078125,0.0,0.0,0.0,False,0,2761
0.0,0.0,0.0,0.0,0.0,0.0,0.0,0.0,0.0,0.0,0.0,0.0,0.0,0.0,0.0,False,0,2758
-0.9933239817619324,-0.015371999703347683,0.17348399758338928,1.662500023841858,-2.484999895095825,1.2512500286102295,-0.16030000150203705,-0.04438000172376633,-0.35280001163482666,0.0,0.0,0.0,0.0,0.0,0.0,False,0,2777
0.0,0.0,0.0,0.0,0.0,0.0,0.0,0.0,0.0,-0.00732421875,0.99560546875,0.19921875,0.0,0.0,0.0,False,0,2778
0.0,0.0,0.0,0.0,0.0,0.0,0.0,0.0,0.0,0.0,0.0,0.0,0.0,0.0,0.0,False,0,2775
-0.9925919771194458,-0.015371999703347683,0.18373200297355652,1.4262499809265137,-2.5374999046325684,1.399999976158142,-0.16967999935150146,-0.052080001682043076,-0.35392001271247864,0.0,0.0,0.0,0.0,0.0,0.0,False,0,2794
0.0,0.0,0.0,0.0,0.0,0.0,0.0,0.0,0.0,0.00244140625,1.01708984375,0.19970703125,0.0,0.0,0.0,False,0,2795
0.0,0.0,0.0,0.0,0.0,0.0,0.0,0.0,0.0,0.0,0.0,0.0,0.0,0.0,0.0,False,0,2792
-0.994055986404419,-0.013175999745726585,0.19617599248886108,1.5225000381469727,-2.7300000190734863,1.408750057220459,-0.16086000204086304,-0.04326000064611435,-0.3505600094795227,0.0,0.0,0.0,0.0,0.0,0.0,False,0,2811
0.0,0.0,0.0,0.0,0.0,0.0,0.0,0.0,0.0,0.00390625,1.00390625,0.2177734375,0.0,0.0,0.0,False,0,2812
0.0,0.0,0.0,0.0,0.0,0.0,0.0,0.0,0.0,0.0,0.0,0.0,0.0,0.0,0.0,False,0,2809
-0.9991799592971802,-0.013175999745726585,0.19178399443626404,1.6974999904632568,-2.765000104904175,1.2862499952316284,-0.16155999898910522,-0.04480000212788582,-0.3516800105571747,0.0,0.0,0.0,0.0,0.0,0.0,False,0,2831
0.0,0.0,0.0,0.0,0.0,0.0,0.0,0.0,0.0,-0.00537109375,0.97509765625,0.21875,0.0,0.0,0.0,False,0,2832
0.0,0.0,0.0,0.0,0.0,0.0,0.0,0.0,0.0,0.0,0.0,0.0,0.0,0.0,0.0,False,0,2829
-0.9962520003318787,-0.016103999689221382,0.17933999001979828,1.408750057220459,-2.870000123977661,1.277500033378601,-0.1677200049161911,-0.05250000208616257,-0.3550400137901306,0.0,0.0,0.0,0.0,0.0,0.0,False,0,2848
0.0,0.0,0.0,0.0,0.0,0.0,0.0,0.0,0.0,-0.0078125,0.9794921875,0.21484375,0.0,0.0,0.0,False,0,2849
0.0,0.0,0.0,0.0,0.0,0.0,0.0,0.0,0.0,0.0,0.0,0.0,0.0,0.0,0.0,False,0,2846
-0.9918599724769592,-0.00951599981635809,0.18373200297355652,1.6100000143051147,-2.380000114440918,1.408750057220459,-0.1629600077867508,-0.052080001682043076,-0.35294002294540405,0.0,0.0,0.0,0.0,0.0,0.0,False,0,2866
0.0,0.0,0.0,0.0,0.0,0.0,0.0,0.0,0.0,0.01025390625,0.9794921875,0.19921875,0.0,0.0,0.0,False,0,2867
0.0,0.0,0.0,0.0,0.0,0.0,0.0,0.0,0.0,0.0,0.0,0.0,0.0,0.0,0.0,False,0,2864
-0.9903959631919861,-0.008051999844610691,0.18299999833106995,1.8112499713897705,-2.677500009536743,1.3125,-0.1682800054550171,-0.05194000154733658,-0.35266000032424927,0.0,0.0,0.0,0.0,0.0,0.0,False,0,2883
0.0,0.0,0.0,0.0,0.0,0.0,0.0,0.0,0.0,-0.00341796875,0.98046875,0.20556640625,0.0,0.0,0.0,False,0,2884
0.0,0.0,0.0,0.0,0.0,0.0,0.0,0.0,0.0,0.0,0.0,0.0,0.0,0.0,0.0,False,0,2881
-0.9903959631919861,-0.0226919986307621,0.18592800199985504,1.9512499570846558,-2.528749942779541,1.2337499856948853,-0.16505999863147736,-0.04676000028848648,-0.3511199951171875,0.0,0.0,0.0,0.0,0.0,0.0,False,0,2900
0.0,0.0,0.0,0.0,0.0,0.0,0.0,0.0,0.0,-0.00634765625,0.98046875,0.2138671875,0.0,0.0,0.0,False,0,2901
0.0,0.0,0.0,0.0,0.0,0.0,0.0,0.0,0.0,0.0,0.0,0.0,0.0,0.0,0.0,False,0,2898
-0.9852719902992249,-0.014639999717473984,0.1844639927148819,1.8287500143051147,-2.694999933242798,1.277500033378601,-0.1678600013256073,-0.049560002982616425,-0.3507000207901001,0.0,0.0,0.0,0.0,0.0,0.0,False,0,2918
0.0,0.0,0.0,0.0,0.0,0.0,0.0,0.0,0.0,0.0,1.00830078125,0.1884765625,0.0,0.0,0.0,False,0,2919
0.0,0.0,0.0,0.0,0.0,0.0,0.0,0.0,0.0,0.0,0.0,0.0,0.0,0.0,0.0,False,0,2916
-1.0021079778671265,-0.021959999576210976,0.17348399758338928,1.662500023841858,-2.791249990463257,1.2162500619888306,-0.16464000940322876,-0.056140001863241196,-0.3505600094795227,0.0,0.0,0.0,0.0,0.0,0.0,False,0,2935
0.0,0.0,0.0,0.0,0.0,0.0,0.0,0.0,0.0,-0.02294921875,0.9970703125,0.2158203125,0.0,0.0,0.0,False,0,2936
0.0,0.0,0.0,0.0,0.0,0.0,0.0,0.0,0.0,0.0,0.0,0.0,0.0,0.0,0.0,False,0,2933
-0.9933239817619324,-0.013175999745726585,0.18299999833106995,1.7062499523162842,-2.721250057220459,1.4787499904632568,-0.16911999881267548,-0.051100000739097595,-0.35392001271247864,0.0,0.0,0.0,0.0,0.0,0.0,False,0,2953
0.0,0.0,0.0,0.0,0.0,0.0,0.0,0.0,0.0,-0.01123046875,0.982421875,0.24560546875,0.0,0.0,0.0,False,0,2954
0.0,0.0,0.0,0.0,0.0,0.0,0.0,0.0,0.0,0.0,0.0,0.0,0.0,0.0,0.0,False,0,2951
-0.9838079810142517,-0.016835998743772507,0.17933999001979828,1.8025000095367432,-2.721250057220459,1.3212499618530273,-0.15848000347614288,-0.043540000915527344,-0.35280001163482666,0.0,0.0,0.0,0.0,0.0,0.0,False,0,2970
0.0,0.0,0.0,0.0,0.0,0.0,0.0,0.0,0.0,-0.00341796875,0.9765625,0.24853515625,0.0,0.0,0.0,False,0,2971
0.0,0.0,0.0,0.0,0.0,0.0,0.0,0.0,0.0,0.0,0.0,0.0,0.0,0.0,0.0,False,0,2968
-0.9955199956893921,-0.023423999547958374,0.17494799196720123,1.7237499952316284,-3.0450000762939453,1.2512500286102295,-0.16086000204086304,-0.04788000136613846,-0.3558800220489502,0.0,0.0,0.0,0.0,0.0,0.0,False,0,2987
0.0,0.0,0.0,0.0,0.0,0.0,0.0,0.0,0.0,0.00244140625,0.98046875,0.22265625,0.0,0.0,0.0,False,0,2988
0.0,0.0,0.0,0.0,0.0,0.0,0.0,0.0,0.0,0.0,0.0,0.0,0.0,0.0,0.0,False,0,2985
-0.9984479546546936,-0.021959999576210976,0.18373200297355652,1.6887500286102295,-2.6162500381469727,1.2599999904632568,-0.15680000185966492,-0.0508200004696846,-0.36316001415252686,0.0,0.0,0.0,0.0,0.0,0.0,False,0,3005
0.0,0.0,0.0,0.0,0.0,0.0,0.0,0.0,0.0,-0.01123046875,0.9990234375,0.2119140625,0.0,0.0,0.0,False,0,3006
0.0,0.0,0.0,0.0,0.0,0.0,0.0,0.0,0.0,0.0,0.0,0.0,0.0,0.0,0.0,False,0,3003
-0.9947879910469055,-0.013175999745726585,0.18226799368858337,1.837499976158142,-2.677500009536743,1.3212499618530273,-0.16114000976085663,-0.052640002220869064,-0.3560200035572052,0.0,0.0,0.0,0.0,0.0,0.0,False,0,3022
0.0,0.0,0.0,0.0,0.0,0.0,0.0,0.0,0.0,-0.02099609375,1.00732421875,0.21337890625,0.0,0.0,0.0,False,0,3023
0.0,0.0,0.0,0.0,0.0,0.0,0.0,0.0,0.0,0.0,0.0,0.0,0.0,0.0,0.0,False,0,3020
-0.994055986404419,-0.00951599981635809,0.187391996383667,1.4787499904632568,-2.791249990463257,1.3037500381469727,-0.15624000132083893,-0.04326000064611435,-0.34804001450538635,0.0,0.0,0.0,0.0,0.0,0.0,False,0,3040
0.0,0.0,0.0,0.0,0.0,0.0,0.0,0.0,0.0,-0.00830078125,0.99755859375,0.2001953125,0.0,0.0,0.0,False,0,3041
0.0,0.0,0.0,0.0,0.0,0.0,0.0,0.0,0.0,0.0,0.0,0.0,0.0,0.0,0.0,False,0,3038
-0.9933239817619324,-0.012443999759852886,0.17787599563598633,1.618749976158142,-2.896250009536743,1.3212499618530273,-0.1632400006055832,-0.04774000123143196,-0.35308000445365906,0.0,0.0,0.0,0.0,0.0,0.0,False,0,3057
0.0,0.0,0.0,0.0,0.0,0.0,0.0,0.0,0.0,0.00439453125,0.98876953125,0.2060546875,0.0,0.0,0.0,False,0,3058
0.0,0.0,0.0,0.0,0.0,0.0,0.0,0.0,0.0,0.0,0.0,0.0,0.0,0.0,0.0,False,0,3055
-0.9947879910469055,-0.015371999703347683,0.19178399443626404,1.5575000047683716,-2.668750047683716,1.2687499523162842,-0.15918000042438507,-0.04213999956846237,-0.35770002007484436,0.0,0.0,0.0,0.0,0.0,0.0,False,0,3092
0.0,0.0,0.0,0.0,0.0,0.0,0.0,0.0,0.0,0.0,0.99560546875,0.20751953125,0.0,0.0,0.0,False,0,3093
0.0,0.0,0.0,0.0,0.0,0.0,0.0,0.0,0.0,0.0,0.0,0.0,0.0,0.0,0.0,False,0,3090
-0.9896639585494995,-0.012443999759852886,0.18373200297355652,1.4874999523162842,-2.5899999141693115,1.225000023841858,-0.162540003657341,-0.05180000141263008,-0.3547600209712982,0.0,0.0,0.0,0.0,0.0,0.0,False,0,3107
0.0,0.0,0.0,0.0,0.0,0.0,0.0,0.0,0.0,-0.01123046875,0.99658203125,0.21337890625,0.0,0.0,0.0,False,0,3108
0.0,0.0,0.0,0.0,0.0,0.0,0.0,0.0,0.0,0.0,0.0,0.0,0.0,0.0,0.0,False,0,3099
-0.9955199956893921,-0.024156000465154648,0.18885599076747894,1.8112499713897705,-2.8350000381469727,1.2599999904632568,-0.1632400006055832,-0.051660001277923584,-0.3512600064277649,0.0,0.0,0.0,0.0,0.0,0.0,False,0,3120
0.0,0.0,0.0,0.0,0.0,0.0,0.0,0.0,0.0,-0.00732421875,0.994140625,0.21240234375,0.0,0.0,0.0,False,0,3121
0.0,0.0,0.0,0.0,0.0,0.0,0.0,0.0,0.0,0.0,0.0,0.0,0.0,0.0,0.0,False,0,3112
-0.9896639585494995,-0.018300000578165054,0.18665999174118042,1.6887500286102295,-2.572499990463257,1.1549999713897705,-0.16380000114440918,-0.0456400029361248,-0.35266000032424927,0.0,0.0,0.0,0.0,0.0,0.0,False,0,3130
0.0,0.0,0.0,0.0,0.0,0.0,0.0,0.0,0.0,-0.00244140625,0.98779296875,0.21142578125,0.0,0.0,0.0,False,0,3136
0.0,0.0,0.0,0.0,0.0,0.0,0.0,0.0,0.0,0.0,0.0,0.0,0.0,0.0,0.0,False,0,3127
-0.9903959631919861,-0.00878399983048439,0.17933999001979828,1.662500023841858,-2.353749990463257,1.3300000429153442,-0.15820001065731049,-0.0459199994802475,-0.35910001397132874,0.0,0.0,0.0,0.0,0.0,0.0,False,0,3147
0.0,0.0,0.0,0.0,0.0,0.0,0.0,0.0,0.0,0.013671875,1.0029296875,0.20068359375,0.0,0.0,0.0,False,0,3149
0.0,0.0,0.0,0.0,0.0,0.0,0.0,0.0,0.0,0.0,0.0,0.0,0.0,0.0,0.0,False,0,3140
-1.0013760328292847,-0.01756799966096878,0.1954440027475357,1.8550000190734863,-2.3975000381469727,1.2512500286102295,-0.15820001065731049,-0.04830000177025795,-0.3452399969100952,0.0,0.0,0.0,0.0,0.0,0.0,False,0,3158
0.0,0.0,0.0,0.0,0.0,0.0,0.0,0.0,0.0,0.0029296875,1.00390625,0.20166015625,0.0,0.0,0.0,False,0,3164
0.0,0.0,0.0,0.0,0.0,0.0,0.0,0.0,0.0,0.0,0.0,0.0,0.0,0.0,0.0,False,0,3155
-0.9962520003318787,-0.020495999604463577,0.18519599735736847,1.7762500047683716,-2.327500104904175,1.277500033378601,-0.16002000868320465,-0.051660001277923584,-0.34384000301361084,0.0,0.0,0.0,0.0,0.0,0.0,False,0,3175
0.0,0.0,0.0,0.0,0.0,0.0,0.0,0.0,0.0,-0.00390625,0.9990234375,0.20263671875,0.0,0.0,0.0,False,0,3177
0.0,0.0,0.0,0.0,0.0,0.0,0.0,0.0,0.0,0.0,0.0,0.0,0.0,0.0,0.0,False,0,3168
-1.0006439685821533,-0.023423999547958374,0.18885599076747894,1.4787499904632568,-2.546250104904175,1.399999976158142,-0.1681400090456009,-0.04424000158905983,-0.35378000140190125,0.0,0.0,0.0,0.0,0.0,0.0,False,0,3186
0.0,0.0,0.0,0.0,0.0,0.0,0.0,0.0,0.0,-0.013671875,0.9765625,0.2041015625,0.0,0.0,0.0,False,0,3191
0.0,0.0,0.0,0.0,0.0,0.0,0.0,0.0,0.0,0.0,0.0,0.0,0.0,0.0,0.0,False,0,3183
-0.9896639585494995,-0.029279999434947968,0.18007199466228485,1.627500057220459,-2.546250104904175,1.2687499523162842,-0.15652000904083252,-0.04619999974966049,-0.3557400107383728,0.0,0.0,0.0,0.0,0.0,0.0,False,0,3202
0.0,0.0,0.0,0.0,0.0,0.0,0.0,0.0,0.0,-0.01123046875,0.97119140625,0.21044921875,0.0,0.0,0.0,False,0,3204
0.0,0.0,0.0,0.0,0.0,0.0,0.0,0.0,0.0,0.0,0.0,0.0,0.0,0.0,0.0,False,0,3195
-0.9889319539070129,-0.011711999773979187,0.17348399758338928,1.6887500286102295,-2.4149999618530273,1.443750023841858,-0.16561999917030334,-0.0456400029361248,-0.35252001881599426,0.0,0.0,0.0,0.0,0.0,0.0,False,0,3213
0.0,0.0,0.0,0.0,0.0,0.0,0.0,0.0,0.0,0.00341796875,0.98486328125,0.21435546875,0.0,0.0,0.0,False,0,3219
0.0,0.0,0.0,0.0,0.0,0.0,0.0,0.0,0.0,0.0,0.0,0.0,0.0,0.0,0.0,False,0,3210
-0.9882000088691711,-0.01903199963271618,0.19178399443626404,1.566249966621399,-2.572499990463257,1.3212499618530273,-0.16576001048088074,-0.0508200004696846,-0.34790000319480896,0.0,0.0,0.0,0.0,0.0,0.0,False,0,3229
0.0,0.0,0.0,0.0,0.0,0.0,0.0,0.0,0.0,0.00439453125,0.99853515625,0.2060546875,0.0,0.0,0.0,False,0,3231
0.0,0.0,0.0,0.0,0.0,0.0,0.0,0.0,0.0,0.0,0.0,0.0,0.0,0.0,0.0,False,0,3223
-0.9911279678344727,-0.01756799966096878,0.17933999001979828,1.8987500667572021,-2.528749942779541,1.5137499570846558,-0.16898000240325928,-0.04942000284790993,-0.3469200134277344,0.0,0.0,0.0,0.0,0.0,0.0,False,0,3240
0.0,0.0,0.0,0.0,0.0,0.0,0.0,0.0,0.0,-0.00341796875,1.0087890625,0.2060546875,0.0,0.0,0.0,False,0,3246
0.0,0.0,0.0,0.0,0.0,0.0,0.0,0.0,0.0,0.0,0.0,0.0,0.0,0.0,0.0,False,0,3237
-0.9911279678344727,-0.015371999703347683,0.17933999001979828,1.5225000381469727,-2.2225000858306885,1.3212499618530273,-0.16660000383853912,-0.047040000557899475,-0.3469200134277344,0.0,0.0,0.0,0.0,0.0,0.0,False,0,3257
0.0,0.0,0.0,0.0,0.0,0.0,0.0,0.0,0.0,-0.0166015625,0.990234375,0.236328125,0.0,0.0,0.0,False,0,3259
0.0,0.0,0.0,0.0,0.0,0.0,0.0,0.0,0.0,0.0,0.0,0.0,0.0,0.0,0.0,False,0,3250
-0.9896639585494995,-0.012443999759852886,0.18885599076747894,1.881250023841858,-2.476249933242798,1.3300000429153442,-0.1632400006055832,-0.04914000257849693,-0.35910001397132874,0.0,0.0,0.0,0.0,0.0,0.0,False,0,3268
0.0,0.0,0.0,0.0,0.0,0.0,0.0,0.0,0.0,-0.0107421875,0.9794921875,0.234375,0.0,0.0,0.0,False,0,3274
0.0,0.0,0.0,0.0,0.0,0.0,0.0,0.0,0.0,0.0,0.0,0.0,0.0,0.0,0.0,False,0,3265
-0.9882000088691711,-0.01903199963271618,0.1844639927148819,1.9249999523162842,-2.668750047683716,1.3212499618530273,-0.16449999809265137,-0.05222000181674957,-0.3446800112724304,0.0,0.0,0.0,0.0,0.0,0.0,False,0,3285
0.0,0.0,0.0,0.0,0.0,0.0,0.0,0.0,0.0,-0.0087890625,0.99853515625,0.2470703125,0.0,0.0,0.0,False,0,3287
0.0,0.0,0.0,0.0,0.0,0.0,0.0,0.0,0.0,0.0,0.0,0.0,0.0,0.0,0.0,False,0,3278
-0.9933239817619324,-0.015371999703347683,0.18373200297355652,1.6537500619888306,-2.651250123977661,1.190000057220459,-0.16058000922203064,-0.054740000516176224,-0.3495800197124481,0.0,0.0,0.0,0.0,0.0,0.0,False,0,3296
0.0,0.0,0.0,0.0,0.0,0.0,0.0,0.0,0.0,-0.017578125,0.98388671875,0.24267578125,0.0,0.0,0.0,False,0,3302
0.0,0.0,0.0,0.0,0.0,0.0,0.0,0.0,0.0,0.0,0.0,0.0,0.0,0.0,0.0,False,0,3293
-0.9955199956893921,-0.027084000408649445,0.17787599563598633,1.846250057220459,-2.4412500858306885,1.1024999618530273,-0.1681400090456009,-0.0509600006043911,-0.34398001432418823,0.0,0.0,0.0,0.0,0.0,0.0,False,0,3313
0.0,0.0,0.0,0.0,0.0,0.0,0.0,0.0,0.0,0.009765625,1.00341796875,0.19189453125,0.0,0.0,0.0,False,0,3315
0.0,0.0,0.0,0.0,0.0,0.0,0.0,0.0,0.0,0.0,0.0,0.0,0.0,0.0,0.0,False,0,3306
-0.994055986404419,-0.01756799966096878,0.18299999833106995,1.8899999856948853,-2.380000114440918,1.225000023841858,-0.1678600013256073,-0.051100000739097595,-0.3411799967288971,0.0,0.0,0.0,0.0,0.0,0.0,False,0,3324
0.0,0.0,0.0,0.0,0.0,0.0,0.0,0.0,0.0,0.01416015625,1.017578125,0.193359375,0.0,0.0,0.0,False,0,3328
0.0,0.0,0.0,0.0,0.0,0.0,0.0,0.0,0.0,0.0,0.0,0.0,0.0,0.0,0.0,False,0,3321
-0.9999119639396667,-0.016103999689221382,0.1786080002784729,1.53125,-2.432500123977661,1.2862499952316284,-0.16408000886440277,-0.04872000217437744,-0.3519600033760071,0.0,0.0,0.0,0.0,0.0,0.0,False,0,3337
0.0,0.0,0.0,0.0,0.0,0.0,0.0,0.0,0.0,0.00537109375,1.00927734375,0.19775390625,0.0,0.0,0.0,False,0,3339
0.0,0.0,0.0,0.0,0.0,0.0,0.0,0.0,0.0,0.0,0.0,0.0,0.0,0.0,0.0,False,0,3335
-0.9947879910469055,-0.019763998687267303,0.1815359890460968,1.5399999618530273,-2.484999895095825,1.3825000524520874,-0.16492000222206116,-0.055160000920295715,-0.34790000319480896,0.0,0.0,0.0,0.0,0.0,0.0,False,0,3350
0.0,0.0,0.0,0.0,0.0,0.0,0.0,0.0,0.0,0.01513671875,1.0185546875,0.1845703125,0.0,0.0,0.0,False,0,3356
0.0,0.0,0.0,0.0,0.0,0.0,0.0,0.0,0.0,0.0,0.0,0.0,0.0,0.0,0.0,False,0,3348
-0.9882000088691711,-0.019763998687267303,0.17348399758338928,1.7762500047683716,-2.581249952316284,1.3825000524520874,-0.16072000563144684,-0.046480000019073486,-0.34888002276420593,0.0,0.0,0.0,0.0,0.0,0.0,False,0,3367
0.0,0.0,0.0,0.0,0.0,0.0,0.0,0.0,0.0,0.00341796875,1.01318359375,0.19091796875,0.0,0.0,0.0,False,0,3369
0.0,0.0,0.0,0.0,0.0,0.0,0.0,0.0,0.0,0.0,0.0,0.0,0.0,0.0,0.0,False,0,3360
-0.9830759763717651,-0.013907999731600285,0.18812400102615356,1.566249966621399,-2.6337499618530273,1.3562500476837158,-0.16576001048088074,-0.050680000334978104,-0.3501400053501129,0.0,0.0,0.0,0.0,0.0,0.0,False,0,3378
0.0,0.0,0.0,0.0,0.0,0.0,0.0,0.0,0.0,-0.00048828125,0.99609375,0.20849609375,0.0,0.0,0.0,False,0,3385
0.0,0.0,0.0,0.0,0.0,0.0,0.0,0.0,0.0,0.0,0.0,0.0,0.0,0.0,0.0,False,0,3375
-0.9955199956893921,-0.016103999689221382,0.1786080002784729,1.4612499475479126,-2.528749942779541,1.4874999523162842,-0.162540003657341,-0.05152000114321709,-0.34874001145362854,0.0,0.0,0.0,0.0,0.0,0.0,False,0,3391
0.0,0.0,0.0,0.0,0.0,0.0,0.0,0.0,0.0,-0.00732421875,0.99072265625,0.2109375,0.0,0.0,0.0,False,0,3398
0.0,0.0,0.0,0.0,0.0,0.0,0.0,0.0,0.0,0.0,0.0,0.0,0.0,0.0,0.0,False,0,3389
-0.9896639585494995,-0.020495999604463577,0.18299999833106995,1.5487500429153442,-2.703749895095825,1.347499966621399,-0.15960000455379486,-0.04830000177025795,-0.3514000177383423,0.0,0.0,0.0,0.0,0.0,0.0,False,0,3408
0.0,0.0,0.0,0.0,0.0,0.0,0.0,0.0,0.0,-0.00537109375,1.0009765625,0.21337890625,0.0,0.0,0.0,False,0,3410
0.0,0.0,0.0,0.0,0.0,0.0,0.0,0.0,0.0,0.0,0.0,0.0,0.0,0.0,0.0,False,0,3401
-0.9955199956893921,-0.010979999788105488,0.18665999174118042,1.7237499952316284,-2.598750114440918,1.2687499523162842,-0.1572200059890747,-0.04774000123143196,-0.3560200035572052,0.0,0.0,0.0,0.0,0.0,0.0,False,0,3419
0.0,0.0,0.0,0.0,0.0,0.0,0.0,0.0,0.0,-0.0126953125,0.99072265625,0.216796875,0.0,0.0,0.0,False,0,3425
0.0,0.0,0.0,0.0,0.0,0.0,0.0,0.0,0.0,0.0,0.0,0.0,0.0,0.0,0.0,False,0,3416
-0.9933239817619324,-0.010247999802231789,0.18299999833106995,1.6712499856948853,-2.6600000858306885,1.2512500286102295,-0.16898000240325928,-0.04718000069260597,-0.35756000876426697,0.0,0.0,0.0,0.0,0.0,0.0,False,0,3436
0.0,0.0,0.0,0.0,0.0,0.0,0.0,0.0,0.0,-0.02978515625,0.97412109375,0.23583984375,0.0,0.0,0.0,False,0,3438
0.0,0.0,0.0,0.0,0.0,0.0,0.0,0.0,0.0,0.0,0.0,0.0,0.0,0.0,0.0,False,0,3429
-0.9969840049743652,-0.010979999788105488,0.18592800199985504,1.7675000429153442,-2.476249933242798,1.4787499904632568,-0.16422000527381897,-0.04788000136613846,-0.3555999994277954,0.0,0.0,0.0,0.0,0.0,0.0,False,0,3447
0.0,0.0,0.0,0.0,0.0,0.0,0.0,0.0,0.0,-0.02392578125,0.97900390625,0.236328125,0.0,0.0,0.0,False,0,3453
0.0,0.0,0.0,0.0,0.0,0.0,0.0,0.0,0.0,0.0,0.0,0.0,0.0,0.0,0.0,False,0,3444
-1.0006439685821533,-0.012443999759852886,0.18665999174118042,1.566249966621399,-2.4149999618530273,1.3212499618530273,-0.16408000886440277,-0.051100000739097595,-0.35266000032424927,0.0,0.0,0.0,0.0,0.0,0.0,False,0,3465
0.0,0.0,0.0,0.0,0.0,0.0,0.0,0.0,0.0,-0.021484375,0.97119140625,0.2470703125,0.0,0.0,0.0,False,0,3467
0.0,0.0,0.0,0.0,0.0,0.0,0.0,0.0,0.0,0.0,0.0,0.0,0.0,0.0,0.0,False,0,3457
-0.9977160096168518,-0.02122800052165985,0.18226799368858337,1.5750000476837158,-2.528749942779541,1.3737499713897705,-0.17080000042915344,-0.047600001096725464,-0.3518200218677521,0.0,0.0,0.0,0.0,0.0,0.0,False,0,3478
0.0,0.0,0.0,0.0,0.0,0.0,0.0,0.0,0.0,-0.01123046875,0.9794921875,0.2431640625,0.0,0.0,0.0,False,0,3479
0.0,0.0,0.0,0.0,0.0,0.0,0.0,0.0,0.0,0.0,0.0,0.0,0.0,0.0,0.0,False,0,3470
-0.994055986404419,-0.010979999788105488,0.19178399443626404,1.5487500429153442,-2.476249933242798,1.4350000619888306,-0.1685599982738495,-0.047040000557899475,-0.3519600033760071,0.0,0.0,0.0,0.0,0.0,0.0,False,0,3488
0.0,0.0,0.0,0.0,0.0,0.0,0.0,0.0,0.0,-0.01513671875,0.9794921875,0.224609375,0.0,0.0,0.0,False,0,3494
0.0,0.0,0.0,0.0,0.0,0.0,0.0,0.0,0.0,0.0,0.0,0.0,0.0,0.0,0.0,False,0,3485
-0.994055986404419,-0.016835998743772507,0.18080399930477142,1.627500057220459,-2.4412500858306885,1.3387500047683716,-0.17052000761032104,-0.053060002624988556,-0.3495800197124481,0.0,0.0,0.0,0.0,0.0,0.0,False,0,3505
0.0,0.0,0.0,0.0,0.0,0.0,0.0,0.0,0.0,-0.0283203125,0.986328125,0.2109375,0.0,0.0,0.0,False,0,3507
0.0,0.0,0.0,0.0,0.0,0.0,0.0,0.0,0.0,0.0,0.0,0.0,0.0,0.0,0.0,False,0,3498
-0.994055986404419,-0.016835998743772507,0.18958799540996552,1.4175000190734863,-2.6424999237060547,1.4175000190734863,-0.1629600077867508,-0.04970000311732292,-0.34888002276420593,0.0,0.0,0.0,0.0,0.0,0.0,False,0,3516
0.0,0.0,0.0,0.0,0.0,0.0,0.0,0.0,0.0,-0.00830078125,1.00048828125,0.21142578125,0.0,0.0,0.0,False,0,3522
0.0,0.0,0.0,0.0,0.0,0.0,0.0,0.0,0.0,0.0,0.0,0.0,0.0,0.0,0.0,False,0,3513
-0.9925919771194458,-0.019763998687267303,0.17714399099349976,1.6362500190734863,-2.7562499046325684,1.2949999570846558,-0.16505999863147736,-0.05320000275969505,-0.35770002007484436,0.0,0.0,0.0,0.0,0.0,0.0,False,0,3534
0.0,0.0,0.0,0.0,0.0,0.0,0.0,0.0,0.0,0.01123046875,0.9765625,0.2138671875,0.0,0.0,0.0,False,0,3536
0.0,0.0,0.0,0.0,0.0,0.0,0.0,0.0,0.0,0.0,0.0,0.0,0.0,0.0,0.0,False,0,3526
-1.0006439685821533,-0.0226919986307621,0.187391996383667,1.5575000047683716,-2.6075000762939453,1.2337499856948853,-0.16408000886440277,-0.046620000153779984,-0.3617600202560425,0.0,0.0,0.0,0.0,0.0,0.0,False,0,3547
0.0,0.0,0.0,0.0,0.0,0.0,0.0,0.0,0.0,0.005859375,0.97265625,0.21630859375,0.0,0.0,0.0,False,0,3548
0.0,0.0,0.0,0.0,0.0,0.0,0.0,0.0,0.0,0.0,0.0,0.0,0.0,0.0,0.0,False,0,3539
-1.0035719871520996,-0.015371999703347683,0.18226799368858337,1.6449999809265137,-2.694999933242798,1.3125,-0.15834000706672668,-0.04676000028848648,-0.3607800006866455,0.0,0.0,0.0,0.0,0.0,0.0,False,0,3557
0.0,0.0,0.0,0.0,0.0,0.0,0.0,0.0,0.0,-0.015625,0.98681640625,0.21533203125,0.0,0.0,0.0,False,0,3563
0.0,0.0,0.0,0.0,0.0,0.0,0.0,0.0,0.0,0.0,0.0,0.0,0.0,0.0,0.0,False,0,3554
-0.9984479546546936,-0.02122800052165985,0.1925159990787506,1.8287500143051147,-2.799999952316284,1.2599999904632568,-0.16184000670909882,-0.054179999977350235,-0.3603599965572357,0.0,0.0,0.0,0.0,0.0,0.0,False,0,3574
0.0,0.0,0.0,0.0,0.0,0.0,0.0,0.0,0.0,-0.009765625,0.9892578125,0.22216796875,0.0,0.0,0.0,False,0,3576
0.0,0.0,0.0,0.0,0.0,0.0,0.0,0.0,0.0,0.0,0.0,0.0,0.0,0.0,0.0,False,0,3567
-0.9903959631919861,-0.013907999731600285,0.18665999174118042,1.53125,-2.6075000762939453,1.399999976158142,-0.16617999970912933,-0.05432000011205673,-0.35447999835014343,0.0,0.0,0.0,0.0,0.0,0.0,False,0,3585
0.0,0.0,0.0,0.0,0.0,0.0,0.0,0.0,0.0,-0.001953125,0.99658203125,0.212890625,0.0,0.0,0.0,False,0,3591
0.0,0.0,0.0,0.0,0.0,0.0,0.0,0.0,0.0,0.0,0.0,0.0,0.0,0.0,0.0,False,0,3582
-0.9925919771194458,-0.016835998743772507,0.19105198979377747,1.5924999713897705,-2.817500114440918,1.3737499713897705,-0.16604000329971313,-0.05375999957323074,-0.3515399992465973,0.0,0.0,0.0,0.0,0.0,0.0,False,0,3602
0.0,0.0,0.0,0.0,0.0,0.0,0.0,0.0,0.0,0.0048828125,0.9931640625,0.21435546875,0.0,0.0,0.0,False,0,3604
0.0,0.0,0.0,0.0,0.0,0.0,0.0,0.0,0.0,0.0,0.0,0.0,0.0,0.0,0.0,False,0,3595
-0.9933239817619324,-0.011711999773979187,0.18007199466228485,1.662500023841858,-2.6162500381469727,1.3300000429153442,-0.16520000994205475,-0.04872000217437744,-0.3547600209712982,0.0,0.0,0.0,0.0,0.0,0.0,False,0,3614
0.0,0.0,0.0,0.0,0.0,0.0,0.0,0.0,0.0,-0.001953125,0.99365234375,0.208984375,0.0,0.0,0.0,False,0,3615
0.0,0.0,0.0,0.0,0.0,0.0,0.0,0.0,0.0,0.0,0.0,0.0,0.0,0.0,0.0,False,0,3611
-0.9962520003318787,-0.021959999576210976,0.17202000319957733,1.4262499809265137,-2.362499952316284,1.2949999570846558,-0.16002000868320465,-0.05152000114321709,-0.36246001720428467,0.0,0.0,0.0,0.0,0.0,0.0,False,0,3626
0.0,0.0,0.0,0.0,0.0,0.0,0.0,0.0,0.0,-0.00146484375,1.00390625,0.20654296875,0.0,0.0,0.0,False,0,3632
0.0,0.0,0.0,0.0,0.0,0.0,0.0,0.0,0.0,0.0,0.0,0.0,0.0,0.0,0.0,False,0,3624
-0.9977160096168518,-0.015371999703347683,0.18226799368858337,1.7237499952316284,-2.6075000762939453,1.2687499523162842,-0.1632400006055832,-0.05124000087380409,-0.3651200234889984,0.0,0.0,0.0,0.0,0.0,0.0,False,0,3643
0.0,0.0,0.0,0.0,0.0,0.0,0.0,0.0,0.0,0.0029296875,0.99951171875,0.21533203125,0.0,0.0,0.0,False,0,3645
0.0,0.0,0.0,0.0,0.0,0.0,0.0,0.0,0.0,0.0,0.0,0.0,0.0,0.0,0.0,False,0,3636
-0.9969840049743652,-0.01756799966096878,0.1844639927148819,1.662500023841858,-2.9749999046325684,1.4175000190734863,-0.1681400090456009,-0.04619999974966049,-0.3598000109195709,0.0,0.0,0.0,0.0,0.0,0.0,False,0,3654
0.0,0.0,0.0,0.0,0.0,0.0,0.0,0.0,0.0,0.00927734375,0.9931640625,0.2080078125,0.0,0.0,0.0,False,0,3660
0.0,0.0,0.0,0.0,0.0,0.0,0.0,0.0,0.0,0.0,0.0,0.0,0.0,0.0,0.0,False,0,3651
-0.9911279678344727,-0.013175999745726585,0.1786080002784729,1.7412500381469727,-2.7300000190734863,1.399999976158142,-0.15890000760555267,-0.04928000271320343,-0.3565800189971924,0.0,0.0,0.0,0.0,0.0,0.0,False,0,3671
0.0,0.0,0.0,0.0,0.0,0.0,0.0,0.0,0.0,0.00634765625,0.990234375,0.2060546875,0.0,0.0,0.0,False,0,3673
0.0,0.0,0.0,0.0,0.0,0.0,0.0,0.0,0.0,0.0,0.0,0.0,0.0,0.0,0.0,False,0,3664
-0.9947879910469055,-0.011711999773979187,0.1786080002784729,1.6012500524520874,-2.694999933242798,1.399999976158142,-0.16086000204086304,-0.04997999966144562,-0.3647000193595886,0.0,0.0,0.0,0.0,0.0,0.0,False,0,3683
0.0,0.0,0.0,0.0,0.0,0.0,0.0,0.0,0.0,0.005859375,0.9921875,0.20263671875,0.0,0.0,0.0,False,0,3684
0.0,0.0,0.0,0.0,0.0,0.0,0.0,0.0,0.0,0.0,0.0,0.0,0.0,0.0,0.0,False,0,3680
-0.9808799624443054,-0.010979999788105488,0.1815359890460968,1.496250033378601,-2.5374999046325684,1.3387500047683716,-0.16002000868320465,-0.0456400029361248,-0.36316001415252686,0.0,0.0,0.0,0.0,0.0,0.0,False,0,3695
0.0,0.0,0.0,0.0,0.0,0.0,0.0,0.0,0.0,0.00146484375,0.99755859375,0.205078125,0.0,0.0,0.0,False,0,3701
0.0,0.0,0.0,0.0,0.0,0.0,0.0,0.0,0.0,0.0,0.0,0.0,0.0,0.0,0.0,False,0,3693
-0.9860039949417114,-0.021959999576210976,0.17933999001979828,1.6974999904632568,-2.6337499618530273,1.347499966621399,-0.15904000401496887,-0.051100000739097595,-0.35728001594543457,0.0,0.0,0.0,0.0,0.0,0.0,False,0,3712
0.0,0.0,0.0,0.0,0.0,0.0,0.0,0.0,0.0,0.00927734375,1.0087890625,0.189453125,0.0,0.0,0.0,False,0,3714
0.0,0.0,0.0,0.0,0.0,0.0,0.0,0.0,0.0,0.0,0.0,0.0,0.0,0.0,0.0,False,0,3705
-0.9977160096168518,-0.011711999773979187,0.17933999001979828,1.6887500286102295,-2.625,1.3212499618530273,-0.16604000329971313,-0.04914000257849693,-0.35322001576423645,0.0,0.0,0.0,0.0,0.0,0.0,False,0,3723
0.0,0.0,0.0,0.0,0.0,0.0,0.0,0.0,0.0,0.0009765625,0.99560546875,0.19287109375,0.0,0.0,0.0,False,0,3729
0.0,0.0,0.0,0.0,0.0,0.0,0.0,0.0,0.0,0.0,0.0,0.0,0.0,0.0,0.0,False,0,3720
-0.9882000088691711,-0.015371999703347683,0.18519599735736847,1.53125,-2.2925000190734863,1.225000023841858,-0.16674000024795532,-0.045500002801418304,-0.3494400084018707,0.0,0.0,0.0,0.0,0.0,0.0,False,0,3740
0.0,0.0,0.0,0.0,0.0,0.0,0.0,0.0,0.0,0.00244140625,0.99755859375,0.1904296875,0.0,0.0,0.0,False,0,3742
0.0,0.0,0.0,0.0,0.0,0.0,0.0,0.0,0.0,0.0,0.0,0.0,0.0,0.0,0.0,False,0,3733
-0.9999119639396667,-0.018300000578165054,0.18665999174118042,1.566249966621399,-2.450000047683716,1.3737499713897705,-0.16632001101970673,-0.052640002220869064,-0.3616200089454651,0.0,0.0,0.0,0.0,0.0,0.0,False,0,3751
0.0,0.0,0.0,0.0,0.0,0.0,0.0,0.0,0.0,-0.001953125,0.9970703125,0.1982421875,0.0,0.0,0.0,False,0,3758
0.0,0.0,0.0,0.0,0.0,0.0,0.0,0.0,0.0,0.0,0.0,0.0,0.0,0.0,0.0,False,0,3748
-0.9903959631919861,-0.00951599981635809,0.18226799368858337,1.4787499904632568,-2.4237499237060547,1.3825000524520874,-0.1633799970149994,-0.056140001863241196,-0.3512600064277649,0.0,0.0,0.0,0.0,0.0,0.0,False,0,3764
0.0,0.0,0.0,0.0,0.0,0.0,0.0,0.0,0.0,0.00537109375,1.00341796875,0.18505859375,0.0,0.0,0.0,False,0,3771
0.0,0.0,0.0,0.0,0.0,0.0,0.0,0.0,0.0,0.0,0.0,0.0,0.0,0.0,0.0,False,0,3762
-0.994055986404419,-0.01903199963271618,0.1815359890460968,1.9774999618530273,-2.5899999141693115,1.2424999475479126,-0.1679999977350235,-0.05530000105500221,-0.35420000553131104,0.0,0.0,0.0,0.0,0.0,0.0,False,0,3781
0.0,0.0,0.0,0.0,0.0,0.0,0.0,0.0,0.0,-0.00634765625,0.9921875,0.20166015625,0.0,0.0,0.0,False,0,3783
0.0,0.0,0.0,0.0,0.0,0.0,0.0,0.0,0.0,0.0,0.0,0.0,0.0,0.0,0.0,False,0,3774
-0.9933239817619324,-0.013907999731600285,0.17641200125217438,1.5750000476837158,-2.791249990463257,1.2949999570846558,-0.17472000420093536,-0.051660001277923584,-0.35447999835014343,0.0,0.0,0.0,0.0,0.0,0.0,False,0,3792
0.0,0.0,0.0,0.0,0.0,0.0,0.0,0.0,0.0,-0.00634765625,0.9921875,0.20166015625,0.0,0.0,0.0,False,0,3796
0.0,0.0,0.0,0.0,0.0,0.0,0.0,0.0,0.0,0.0,0.0,0.0,0.0,0.0,0.0,False,0,3789
-0.9852719902992249,-0.011711999773979187,0.18812400102615356,1.5750000476837158,-2.5637500286102295,1.4874999523162842,-0.16646000742912292,-0.054740000516176224,-0.3522399961948395,0.0,0.0,0.0,0.0,0.0,0.0,False,0,3805
0.0,0.0,0.0,0.0,0.0,0.0,0.0,0.0,0.0,-0.00537109375,0.9814453125,0.234375,0.0,0.0,0.0,False,0,3807
0.0,0.0,0.0,0.0,0.0,0.0,0.0,0.0,0.0,0.0,0.0,0.0,0.0,0.0,0.0,False,0,3803
-1.0043039321899414,-0.011711999773979187,0.20349599421024323,1.715000033378601,-2.5199999809265137,1.347499966621399,-0.17066000401973724,-0.051100000739097595,-0.34747999906539917,0.0,0.0,0.0,0.0,0.0,0.0,False,0,3818
0.0,0.0,0.0,0.0,0.0,0.0,0.0,0.0,0.0,-0.01318359375,0.96826171875,0.2353515625,0.0,0.0,0.0,False,0,3825
0.0,0.0,0.0,0.0,0.0,0.0,0.0,0.0,0.0,0.0,0.0,0.0,0.0,0.0,0.0,False,0,3816
-0.9933239817619324,-0.020495999604463577,0.19324800372123718,1.6012500524520874,-2.5374999046325684,1.225000023841858,-0.17066000401973724,-0.0509600006043911,-0.34929999709129333,0.0,0.0,0.0,0.0,0.0,0.0,False,0,3831
0.0,0.0,0.0,0.0,0.0,0.0,0.0,0.0,0.0,0.00537109375,0.98388671875,0.21142578125,0.0,0.0,0.0,False,0,3838
0.0,0.0,0.0,0.0,0.0,0.0,0.0,0.0,0.0,0.0,0.0,0.0,0.0,0.0,0.0,False,0,3829
-0.9977160096168518,-0.010247999802231789,0.18812400102615356,1.6362500190734863,-2.40625,1.3387500047683716,-0.1729000061750412,-0.049000002443790436,-0.3551799952983856,0.0,0.0,0.0,0.0,0.0,0.0,False,0,3848
0.0,0.0,0.0,0.0,0.0,0.0,0.0,0.0,0.0,0.00146484375,0.9990234375,0.20849609375,0.0,0.0,0.0,False,0,3850
0.0,0.0,0.0,0.0,0.0,0.0,0.0,0.0,0.0,0.0,0.0,0.0,0.0,0.0,0.0,False,0,3841
-0.9969840049743652,-0.010979999788105488,0.0,1.715000033378601,-2.5637500286102295,1.3212499618530273,-0.16393999755382538,-0.057120002806186676,-0.35335999727249146,0.0,0.0,0.0,0.0,0.0,0.0,False,0,3859
0.0,0.0,0.0,0.0,0.0,0.0,0.0,0.0,0.0,-0.01025390625,0.9912109375,0.20947265625,0.0,0.0,0.0,False,0,3865
0.0,0.0,0.0,0.0,0.0,0.0,0.0,0.0,0.0,0.0,0.0,0.0,0.0,0.0,0.0,False,0,3856
-1.0006439685821533,-0.010979999788105488,0.18812400102615356,1.7062499523162842,-2.484999895095825,1.443750023841858,-0.17066000401973724,-0.05152000114321709,-0.3521000146865845,0.0,0.0,0.0,0.0,0.0,0.0,False,0,3876
0.0,0.0,0.0,0.0,0.0,0.0,0.0,0.0,0.0,-0.0126953125,0.9873046875,0.20751953125,0.0,0.0,0.0,False,0,3878
0.0,0.0,0.0,0.0,0.0,0.0,0.0,0.0,0.0,0.0,0.0,0.0,0.0,0.0,0.0,False,0,3869
-0.9969840049743652,-0.016835998743772507,0.18299999833106995,1.2687499523162842,-2.721250057220459,1.2599999904632568,-0.1731799989938736,-0.048580002039670944,-0.344539999961853,0.0,0.0,0.0,0.0,0.0,0.0,False,0,3887
0.0,0.0,0.0,0.0,0.0,0.0,0.0,0.0,0.0,-0.005859375,0.97705078125,0.21044921875,0.0,0.0,0.0,False,0,3893
0.0,0.0,0.0,0.0,0.0,0.0,0.0,0.0,0.0,0.0,0.0,0.0,0.0,0.0,0.0,False,0,3884
-0.9896639585494995,-0.015371999703347683,0.18665999174118042,1.6974999904632568,-2.7125000953674316,1.5049999952316284,-0.17373999953269958,-0.04480000212788582,-0.34328001737594604,0.0,0.0,0.0,0.0,0.0,0.0,False,0,3905
0.0,0.0,0.0,0.0,0.0,0.0,0.0,0.0,0.0,-0.00927734375,0.97314453125,0.21826171875,0.0,0.0,0.0,False,0,3907
0.0,0.0,0.0,0.0,0.0,0.0,0.0,0.0,0.0,0.0,0.0,0.0,0.0,0.0,0.0,False,0,3897
-0.9962520003318787,-0.024156000465154648,0.18007199466228485,1.7324999570846558,-3.009999990463257,1.3037500381469727,-0.16870000958442688,-0.04997999966144562,-0.34888002276420593,0.0,0.0,0.0,0.0,0.0,0.0,False,0,3918
0.0,0.0,0.0,0.0,0.0,0.0,0.0,0.0,0.0,-0.01123046875,0.98779296875,0.2138671875,0.0,0.0,0.0,False,0,3919
0.0,0.0,0.0,0.0,0.0,0.0,0.0,0.0,0.0,0.0,0.0,0.0,0.0,0.0,0.0,False,0,3910
-0.9933239817619324,-0.018300000578165054,0.18299999833106995,1.627500057220459,-2.694999933242798,1.2337499856948853,-0.1673000007867813,-0.05250000208616257,-0.35350000858306885,0.0,0.0,0.0,0.0,0.0,0.0,False,0,3928
0.0,0.0,0.0,0.0,0.0,0.0,0.0,0.0,0.0,-0.00048828125,1.0,0.19921875,0.0,0.0,0.0,False,0,3934
0.0,0.0,0.0,0.0,0.0,0.0,0.0,0.0,0.0,0.0,0.0,0.0,0.0,0.0,0.0,False,0,3925
-0.9991799592971802,-0.013907999731600285,0.18007199466228485,1.75,-2.484999895095825,1.3562500476837158,-0.17038001120090485,-0.05250000208616257,-0.34762001037597656,0.0,0.0,0.0,0.0,0.0,0.0,False,0,3945
0.0,0.0,0.0,0.0,0.0,0.0,0.0,0.0,0.0,0.0029296875,0.99267578125,0.20947265625,0.0,0.0,0.0,False,0,3947
0.0,0.0,0.0,0.0,0.0,0.0,0.0,0.0,0.0,0.0,0.0,0.0,0.0,0.0,0.0,False,0,3938
-0.9955199956893921,-0.01756799966096878,0.1903200000524521,1.6449999809265137,-2.450000047683716,1.3825000524520874,-0.17052000761032104,-0.05656000226736069,-0.35308000445365906,0.0,0.0,0.0,0.0,0.0,0.0,False,0,3956
0.0,0.0,0.0,0.0,0.0,0.0,0.0,0.0,0.0,-0.00244140625,0.984375,0.21728515625,0.0,0.0,0.0,False,0,3962
0.0,0.0,0.0,0.0,0.0,0.0,0.0,0.0,0.0,0.0,0.0,0.0,0.0,0.0,0.0,False,0,3953
-1.0006439685821533,-0.020495999604463577,0.18299999833106995,1.7237499952316284,-2.2225000858306885,1.347499966621399,-0.17136000096797943,-0.048020001500844955,-0.3598000109195709,0.0,0.0,0.0,0.0,0.0,0.0,False,0,3974
0.0,0.0,0.0,0.0,0.0,0.0,0.0,0.0,0.0,-0.0068359375,0.9765625,0.216796875,0.0,0.0,0.0,False,0,3976
0.0,0.0,0.0,0.0,0.0,0.0,0.0,0.0,0.0,0.0,0.0,0.0,0.0,0.0,0.0,False,0,3966
-0.9933239817619324,-0.019763998687267303,0.1756799966096878,1.8899999856948853,-2.791249990463257,1.1725000143051147,-0.16170001029968262,-0.04690000042319298,-0.3549000024795532,0.0,0.0,0.0,0.0,0.0,0.0,False,0,3987
0.0,0.0,0.0,0.0,0.0,0.0,0.0,0.0,0.0,-0.00146484375,0.98876953125,0.2060546875,0.0,0.0,0.0,False,0,3988
0.0,0.0,0.0,0.0,0.0,0.0,0.0,0.0,0.0,0.0,0.0,0.0,0.0,0.0,0.0,False,0,3979
-0.9896639585494995,-0.011711999773979187,0.18373200297355652,1.3650000095367432,-2.6862499713897705,1.4612499475479126,-0.16617999970912933,-0.051660001277923584,-0.3451000154018402,0.0,0.0,0.0,0.0,0.0,0.0,False,0,3997
0.0,0.0,0.0,0.0,0.0,0.0,0.0,0.0,0.0,-0.00146484375,0.98828125,0.20361328125,0.0,0.0,0.0,False,0,4003
0.0,0.0,0.0,0.0,0.0,0.0,0.0,0.0,0.0,0.0,0.0,0.0,0.0,0.0,0.0,False,0,3994
-0.9925919771194458,-0.018300000578165054,0.18885599076747894,1.5924999713897705,-2.6075000762939453,1.3125,-0.16911999881267548,-0.05348000302910805,-0.35266000032424927,0.0,0.0,0.0,0.0,0.0,0.0,False,0,4014
0.0,0.0,0.0,0.0,0.0,0.0,0.0,0.0,0.0,0.00732421875,0.99560546875,0.2021484375,0.0,0.0,0.0,False,0,4016
0.0,0.0,0.0,0.0,0.0,0.0,0.0,0.0,0.0,0.0,0.0,0.0,0.0,0.0,0.0,False,0,4007
-0.9852719902992249,-0.021959999576210976,0.18080399930477142,1.4787499904632568,-2.817500114440918,1.190000057220459,-0.17080000042915344,-0.04718000069260597,-0.355320006608963,0.0,0.0,0.0,0.0,0.0,0.0,False,0,4025
0.0,0.0,0.0,0.0,0.0,0.0,0.0,0.0,0.0,-0.0009765625,1.00439453125,0.20263671875,0.0,0.0,0.0,False,0,4031
0.0,0.0,0.0,0.0,0.0,0.0,0.0,0.0,0.0,0.0,0.0,0.0,0.0,0.0,0.0,False,0,4022
-0.9933239817619324,-0.013907999731600285,0.1954440027475357,1.3037500381469727,-2.922499895095825,1.225000023841858,-0.17094001173973083,-0.0509600006043911,-0.35447999835014343,0.0,0.0,0.0,0.0,0.0,0.0,False,0,4042
0.0,0.0,0.0,0.0,0.0,0.0,0.0,0.0,0.0,-0.0048828125,1.00537109375,0.2021484375,0.0,0.0,0.0,False,0,4044
0.0,0.0,0.0,0.0,0.0,0.0,0.0,0.0,0.0,0.0,0.0,0.0,0.0,0.0,0.0,False,0,4035
-0.9977160096168518,-0.019763998687267303,0.18080399930477142,1.4262499809265137,-2.6075000762939453,1.3212499618530273,-0.1684200018644333,-0.055160000920295715,-0.35728001594543457,0.0,0.0,0.0,0.0,0.0,0.0,False,0,4054
0.0,0.0,0.0,0.0,0.0,0.0,0.0,0.0,0.0,-0.0009765625,0.99365234375,0.2001953125,0.0,0.0,0.0,False,0,4055
0.0,0.0,0.0,0.0,0.0,0.0,0.0,0.0,0.0,0.0,0.0,0.0,0.0,0.0,0.0,False,0,4051
-0.9852719902992249,-0.02122800052165985,0.19105198979377747,1.408750057220459,-2.3975000381469727,1.5487500429153442,-0.16617999970912933,-0.05236000195145607,-0.34356001019477844,0.0,0.0,0.0,0.0,0.0,0.0,False,0,4066
0.0,0.0,0.0,0.0,0.0,0.0,0.0,0.0,0.0,-0.001953125,1.0244140625,0.20556640625,0.0,0.0,0.0,False,0,4073
0.0,0.0,0.0,0.0,0.0,0.0,0.0,0.0,0.0,0.0,0.0,0.0,0.0,0.0,0.0,False,0,4064
-0.9911279678344727,-0.020495999604463577,0.18592800199985504,1.4175000190734863,-2.283750057220459,1.3912500143051147,-0.172760009765625,-0.04928000271320343,-0.3446800112724304,0.0,0.0,0.0,0.0,0.0,0.0,False,0,4079
0.0,0.0,0.0,0.0,0.0,0.0,0.0,0.0,0.0,-0.01953125,1.00048828125,0.22265625,0.0,0.0,0.0,False,0,4086
0.0,0.0,0.0,0.0,0.0,0.0,0.0,0.0,0.0,0.0,0.0,0.0,0.0,0.0,0.0,False,0,4077
-0.9903959631919861,-0.021959999576210976,0.19471199810504913,1.4700000286102295,-2.528749942779541,1.2512500286102295,-0.1622600108385086,-0.049000002443790436,-0.3460800051689148,0.0,0.0,0.0,0.0,0.0,0.0,False,0,4096
0.0,0.0,0.0,0.0,0.0,0.0,0.0,0.0,0.0,-0.02099609375,0.98779296875,0.232421875,0.0,0.0,0.0,False,0,4098
0.0,0.0,0.0,0.0,0.0,0.0,0.0,0.0,0.0,0.0,0.0,0.0,0.0,0.0,0.0,False,0,4089
-0.9955199956893921,-0.016835998743772507,0.1786080002784729,1.8987500667572021,-2.721250057220459,1.2599999904632568,-0.16617999970912933,-0.05334000289440155,-0.34776002168655396,0.0,0.0,0.0,0.0,0.0,0.0,False,0,4107
0.0,0.0,0.0,0.0,0.0,0.0,0.0,0.0,0.0,-0.017578125,0.98974609375,0.21923828125,0.0,0.0,0.0,False,0,4113
0.0,0.0,0.0,0.0,0.0,0.0,0.0,0.0,0.0,0.0,0.0,0.0,0.0,0.0,0.0,False,0,4104
-0.9955199956893921,-0.020495999604463577,0.18519599735736847,1.662500023841858,-2.3712499141693115,1.3562500476837158,-0.16561999917030334,-0.050540000200271606,-0.35406002402305603,0.0,0.0,0.0,0.0,0.0,0.0,False,0,4125
0.0,0.0,0.0,0.0,0.0,0.0,0.0,0.0,0.0,-0.0166015625,0.9833984375,0.2236328125,0.0,0.0,0.0,False,0,4127
0.0,0.0,0.0,0.0,0.0,0.0,0.0,0.0,0.0,0.0,0.0,0.0,0.0,0.0,0.0,False,0,4117
-0.9918599724769592,-0.024887999519705772,0.18519599735736847,1.4612499475479126,-2.668750047683716,1.2074999809265137,-0.1670200079679489,-0.055160000920295715,-0.3452399969100952,0.0,0.0,0.0,0.0,0.0,0.0,False,0,4138
0.0,0.0,0.0,0.0,0.0,0.0,0.0,0.0,0.0,-0.02294921875,0.984375,0.22900390625,0.0,0.0,0.0,False,0,4139
0.0,0.0,0.0,0.0,0.0,0.0,0.0,0.0,0.0,0.0,0.0,0.0,0.0,0.0,0.0,False,0,4130
-0.9933239817619324,-0.016103999689221382,0.17714399099349976,1.6887500286102295,-2.9312500953674316,1.3650000095367432,-0.17500001192092896,-0.04676000028848648,-0.35308000445365906,0.0,0.0,0.0,0.0,0.0,0.0,False,0,4148
0.0,0.0,0.0,0.0,0.0,0.0,0.0,0.0,0.0,0.02490234375,1.0029296875,0.18212890625,0.0,0.0,0.0,False,0,4154
0.0,0.0,0.0,0.0,0.0,0.0,0.0,0.0,0.0,0.0,0.0,0.0,0.0,0.0,0.0,False,0,4145
-0.9969840049743652,-0.011711999773979187,0.18592800199985504,1.7675000429153442,-2.6337499618530273,1.3562500476837158,-0.16366000473499298,-0.04830000177025795,-0.3407600224018097,0.0,0.0,0.0,0.0,0.0,0.0,False,0,4165
0.0,0.0,0.0,0.0,0.0,0.0,0.0,0.0,0.0,0.0322265625,1.02880859375,0.17138671875,0.0,0.0,0.0,False,0,4167
0.0,0.0,0.0,0.0,0.0,0.0,0.0,0.0,0.0,0.0,0.0,0.0,0.0,0.0,0.0,False,0,4158
-0.9955199956893921,-0.023423999547958374,0.19764000177383423,1.6449999809265137,-2.450000047683716,1.2424999475479126,-0.1678600013256073,-0.04830000177025795,-0.3501400053501129,0.0,0.0,0.0,0.0,0.0,0.0,False,0,4176
0.0,0.0,0.0,0.0,0.0,0.0,0.0,0.0,0.0,0.00439453125,1.00927734375,0.20751953125,0.0,0.0,0.0,False,0,4182
0.0,0.0,0.0,0.0,0.0,0.0,0.0,0.0,0.0,0.0,0.0,0.0,0.0,0.0,0.0,False,0,4173
-0.9903959631919861,-0.024887999519705772,0.18885599076747894,1.566249966621399,-2.555000066757202,1.2599999904632568,-0.16940000653266907,-0.049000002443790436,-0.34762001037597656,0.0,0.0,0.0,0.0,0.0,0.0,False,0,4193
0.0,0.0,0.0,0.0,0.0,0.0,0.0,0.0,0.0,-0.00341796875,0.994140625,0.21630859375,0.0,0.0,0.0,False,0,4195
0.0,0.0,0.0,0.0,0.0,0.0,0.0,0.0,0.0,0.0,0.0,0.0,0.0,0.0,0.0,False,0,4186
-0.9933239817619324,-0.013907999731600285,0.18080399930477142,1.6800000667572021,-2.581249952316284,1.3387500047683716,-0.17555999755859375,-0.04816000163555145,-0.34929999709129333,0.0,0.0,0.0,0.0,0.0,0.0,False,0,4205
0.0,0.0,0.0,0.0,0.0,0.0,0.0,0.0,0.0,0.00048828125,0.98291015625,0.232421875,0.0,0.0,0.0,False,0,4206
0.0,0.0,0.0,0.0,0.0,0.0,0.0,0.0,0.0,0.0,0.0,0.0,0.0,0.0,0.0,False,0,4202
-0.9860039949417114,-0.016103999689221382,0.1756799966096878,1.5750000476837158,-2.6424999237060547,1.006250023841858,-0.17094001173973083,-0.041999999433755875,-0.3449600040912628,0.0,0.0,0.0,0.0,0.0,0.0,False,0,4217
0.0,0.0,0.0,0.0,0.0,0.0,0.0,0.0,0.0,-0.009765625,0.99755859375,0.22265625,0.0,0.0,0.0,False,0,4223
0.0,0.0,0.0,0.0,0.0,0.0,0.0,0.0,0.0,0.0,0.0,0.0,0.0,0.0,0.0,False,0,4215
-0.9889319539070129,-0.015371999703347683,0.17787599563598633,1.8987500667572021,-2.4237499237060547,1.3387500047683716,-0.16870000958442688,-0.044520001858472824,-0.34747999906539917,0.0,0.0,0.0,0.0,0.0,0.0,False,0,4234
0.0,0.0,0.0,0.0,0.0,0.0,0.0,0.0,0.0,-0.013671875,0.9951171875,0.19970703125,0.0,0.0,0.0,False,0,4236
0.0,0.0,0.0,0.0,0.0,0.0,0.0,0.0,0.0,0.0,0.0,0.0,0.0,0.0,0.0,False,0,4227
-0.9977160096168518,-0.01756799966096878,0.18373200297355652,1.5837500095367432,-2.651250123977661,1.181249976158142,-0.163100004196167,-0.050119999796152115,-0.34832000732421875,0.0,0.0,0.0,0.0,0.0,0.0,False,0,4245
0.0,0.0,0.0,0.0,0.0,0.0,0.0,0.0,0.0,-0.0087890625,1.0048828125,0.20654296875,0.0,0.0,0.0,False,0,4251
0.0,0.0,0.0,0.0,0.0,0.0,0.0,0.0,0.0,0.0,0.0,0.0,0.0,0.0,0.0,False,0,4242
-0.9903959631919861,-0.021959999576210976,0.18007199466228485,1.6887500286102295,-2.572499990463257,1.3212499618530273,-0.163100004196167,-0.04102000221610069,-0.3518200218677521,0.0,0.0,0.0,0.0,0.0,0.0,False,0,4262
0.0,0.0,0.0,0.0,0.0,0.0,0.0,0.0,0.0,-0.00390625,1.0205078125,0.20703125,0.0,0.0,0.0,False,0,4264
0.0,0.0,0.0,0.0,0.0,0.0,0.0,0.0,0.0,0.0,0.0,0.0,0.0,0.0,0.0,False,0,4255
-0.9962520003318787,-0.013907999731600285,0.18299999833106995,1.7237499952316284,-2.7562499046325684,1.347499966621399,-0.1628200113773346,-0.046480000019073486,-0.3505600094795227,0.0,0.0,0.0,0.0,0.0,0.0,False,0,4274
0.0,0.0,0.0,0.0,0.0,0.0,0.0,0.0,0.0,-0.02978515625,1.00341796875,0.20849609375,0.0,0.0,0.0,False,0,4275
0.0,0.0,0.0,0.0,0.0,0.0,0.0,0.0,0.0,0.0,0.0,0.0,0.0,0.0,0.0,False,0,4271
-0.9925919771194458,-0.015371999703347683,0.18007199466228485,1.5837500095367432,-2.5199999809265137,1.5399999618530273,-0.16604000329971313,-0.052080001682043076,-0.35238000750541687,0.0,0.0,0.0,0.0,0.0,0.0,False,0,4286
0.0,0.0,0.0,0.0,0.0,0.0,0.0,0.0,0.0,-0.02734375,1.001953125,0.20947265625,0.0,0.0,0.0,False,0,4292
0.0,0.0,0.0,0.0,0.0,0.0,0.0,0.0,0.0,0.0,0.0,0.0,0.0,0.0,0.0,False,0,4284
-0.9918599724769592,-0.015371999703347683,0.18007199466228485,1.5399999618530273,-2.4937500953674316,1.347499966621399,-0.16114000976085663,-0.04997999966144562,-0.3505600094795227,0.0,0.0,0.0,0.0,0.0,0.0,False,0,4303
0.0,0.0,0.0,0.0,0.0,0.0,0.0,0.0,0.0,-0.00927734375,0.99853515625,0.2001953125,0.0,0.0,0.0,False,0,4305
0.0,0.0,0.0,0.0,0.0,0.0,0.0,0.0,0.0,0.0,0.0,0.0,0.0,0.0,0.0,False,0,4296
-0.9947879910469055,-0.016835998743772507,0.19178399443626404,1.6449999809265137,-2.940000057220459,1.3562500476837158,-0.16590000689029694,-0.04830000177025795,-0.3453800082206726,0.0,0.0,0.0,0.0,0.0,0.0,False,0,4314
0.0,0.0,0.0,0.0,0.0,0.0,0.0,0.0,0.0,0.0,1.00341796875,0.2041015625,0.0,0.0,0.0,False,0,4320
0.0,0.0,0.0,0.0,0.0,0.0,0.0,0.0,0.0,0.0,0.0,0.0,0.0,0.0,0.0,False,0,4311
-0.9889319539070129,-0.019763998687267303,0.18812400102615356,1.6012500524520874,-2.5112500190734863,1.4874999523162842,-0.16436000168323517,-0.05222000181674957,-0.3469200134277344,0.0,0.0,0.0,0.0,0.0,0.0,False,0,4331
0.0,0.0,0.0,0.0,0.0,0.0,0.0,0.0,0.0,-0.00146484375,1.017578125,0.19287109375,0.0,0.0,0.0,False,0,4333
0.0,0.0,0.0,0.0,0.0,0.0,0.0,0.0,0.0,0.0,0.0,0.0,0.0,0.0,0.0,False,0,4324
-0.9955199956893921,-0.015371999703347683,0.19178399443626404,1.6712499856948853,-2.5899999141693115,1.2424999475479126,-0.172200009226799,-0.048580002039670944,-0.34762001037597656,0.0,0.0,0.0,0.0,0.0,0.0,False,0,4342
0.0,0.0,0.0,0.0,0.0,0.0,0.0,0.0,0.0,-0.00634765625,1.00927734375,0.20068359375,0.0,0.0,0.0,False,0,4349
0.0,0.0,0.0,0.0,0.0,0.0,0.0,0.0,0.0,0.0,0.0,0.0,0.0,0.0,0.0,False,0,4339
-0.9925919771194458,-0.020495999604463577,0.18592800199985504,1.6537500619888306,-2.476249933242798,1.4350000619888306,-0.16505999863147736,-0.0560000017285347,-0.34299999475479126,0.0,0.0,0.0,0.0,0.0,0.0,False,0,4355
0.0,0.0,0.0,0.0,0.0,0.0,0.0,0.0,0.0,-0.0146484375,0.98828125,0.2255859375,0.0,0.0,0.0,False,0,4362
0.0,0.0,0.0,0.0,0.0,0.0,0.0,0.0,0.0,0.0,0.0,0.0,0.0,0.0,0.0,False,0,4353
-0.9933239817619324,-0.010247999802231789,0.17641200125217438,1.6449999809265137,-2.3887500762939453,1.277500033378601,-0.17178000509738922,-0.05403999984264374,-0.3458000123500824,0.0,0.0,0.0,0.0,0.0,0.0,False,0,4372
0.0,0.0,0.0,0.0,0.0,0.0,0.0,0.0,0.0,-0.013671875,0.978515625,0.216796875,0.0,0.0,0.0,False,0,4374
0.0,0.0,0.0,0.0,0.0,0.0,0.0,0.0,0.0,0.0,0.0,0.0,0.0,0.0,0.0,False,0,4365
-0.9947879910469055,-0.00951599981635809,0.18958799540996552,1.8550000190734863,-2.625,1.5049999952316284,-0.16561999917030334,-0.05025999993085861,-0.34874001145362854,0.0,0.0,0.0,0.0,0.0,0.0,False,0,4383
0.0,0.0,0.0,0.0,0.0,0.0,0.0,0.0,0.0,-0.0283203125,0.97802734375,0.2294921875,0.0,0.0,0.0,False,0,4389
0.0,0.0,0.0,0.0,0.0,0.0,0.0,0.0,0.0,0.0,0.0,0.0,0.0,0.0,0.0,False,0,4380
-0.9984479546546936,-0.010979999788105488,0.18007199466228485,1.7237499952316284,-2.484999895095825,1.3650000095367432,-0.1673000007867813,-0.05152000114321709,-0.3562999963760376,0.0,0.0,0.0,0.0,0.0,0.0,False,0,4400
0.0,0.0,0.0,0.0,0.0,0.0,0.0,0.0,0.0,-0.00390625,0.994140625,0.2177734375,0.0,0.0,0.0,False,0,4402
0.0,0.0,0.0,0.0,0.0,0.0,0.0,0.0,0.0,0.0,0.0,0.0,0.0,0.0,0.0,False,0,4393
-0.9889319539070129,-0.016835998743772507,0.1815359890460968,1.5487500429153442,-2.362499952316284,1.443750023841858,-0.16422000527381897,-0.05446000024676323,-0.3508400022983551,0.0,0.0,0.0,0.0,0.0,0.0,False,0,4411
0.0,0.0,0.0,0.0,0.0,0.0,0.0,0.0,0.0,0.01513671875,0.99462890625,0.2001953125,0.0,0.0,0.0,False,0,4417
0.0,0.0,0.0,0.0,0.0,0.0,0.0,0.0,0.0,0.0,0.0,0.0,0.0,0.0,0.0,False,0,4408
-0.9991799592971802,-0.018300000578165054,0.1844639927148819,1.566249966621399,-2.677500009536743,1.3737499713897705,-0.1633799970149994,-0.058240000158548355,-0.34776002168655396,0.0,0.0,0.0,0.0,0.0,0.0,False,0,4429
0.0,0.0,0.0,0.0,0.0,0.0,0.0,0.0,0.0,0.0068359375,0.98583984375,0.1962890625,0.0,0.0,0.0,False,0,4431
0.0,0.0,0.0,0.0,0.0,0.0,0.0,0.0,0.0,0.0,0.0,0.0,0.0,0.0,0.0,False,0,4421
-0.9947879910469055,-0.0226919986307621,0.187391996383667,1.715000033378601,-2.7125000953674316,1.4700000286102295,-0.16520000994205475,-0.04997999966144562,-0.3498600125312805,0.0,0.0,0.0,0.0,0.0,0.0,False,0,4442
0.0,0.0,0.0,0.0,0.0,0.0,0.0,0.0,0.0,0.0009765625,0.978515625,0.19677734375,0.0,0.0,0.0,False,0,4443
0.0,0.0,0.0,0.0,0.0,0.0,0.0,0.0,0.0,0.0,0.0,0.0,0.0,0.0,0.0,False,0,4434
-0.9925919771194458,-0.019763998687267303,0.18299999833106995,1.6449999809265137,-2.5374999046325684,1.190000057220459,-0.16660000383853912,-0.054179999977350235,-0.3518200218677521,0.0,0.0,0.0,0.0,0.0,0.0,False,0,4452
0.0,0.0,0.0,0.0,0.0,0.0,0.0,0.0,0.0,-0.01220703125,0.96337890625,0.216796875,0.0,0.0,0.0,False,0,4458
0.0,0.0,0.0,0.0,0.0,0.0,0.0,0.0,0.0,0.0,0.0,0.0,0.0,0.0,0.0,False,0,4449
-0.9830759763717651,-0.013175999745726585,0.19690799713134766,1.53125,-2.747499942779541,1.3737499713897705,-0.1621199995279312,-0.04619999974966049,-0.3504199981689453,0.0,0.0,0.0,0.0,0.0,0.0,False,0,4469
0.0,0.0,0.0,0.0,0.0,0.0,0.0,0.0,0.0,-0.01416015625,0.9658203125,0.21533203125,0.0,0.0,0.0,False,0,4471
0.0,0.0,0.0,0.0,0.0,0.0,0.0,0.0,0.0,0.0,0.0,0.0,0.0,0.0,0.0,False,0,4462
-0.9882000088691711,-0.010247999802231789,0.19324800372123718,1.53125,-2.6600000858306885,1.3650000095367432,-0.16576001048088074,-0.053620003163814545,-0.35280001163482666,0.0,0.0,0.0,0.0,0.0,0.0,False,0,4480
0.0,0.0,0.0,0.0,0.0,0.0,0.0,0.0,0.0,0.0078125,0.98388671875,0.20263671875,0.0,0.0,0.0,False,0,4486
0.0,0.0,0.0,0.0,0.0,0.0,0.0,0.0,0.0,0.0,0.0,0.0,0.0,0.0,0.0,False,0,4477
-0.9977160096168518,-0.012443999759852886,0.18373200297355652,1.75,-2.791249990463257,1.3387500047683716,-0.1629600077867508,-0.046480000019073486,-0.34411999583244324,0.0,0.0,0.0,0.0,0.0,0.0,False,0,4498
0.0,0.0,0.0,0.0,0.0,0.0,0.0,0.0,0.0,0.00146484375,0.9765625,0.22216796875,0.0,0.0,0.0,False,0,4500
0.0,0.0,0.0,0.0,0.0,0.0,0.0,0.0,0.0,0.0,0.0,0.0,0.0,0.0,0.0,False,0,4490
-0.9896639585494995,-0.024156000465154648,0.18958799540996552,1.8025000095367432,-2.3712499141693115,1.3825000524520874,-0.16086000204086304,-0.05138000100851059,-0.34552001953125,0.0,0.0,0.0,0.0,0.0,0.0,False,0,4511
0.0,0.0,0.0,0.0,0.0,0.0,0.0,0.0,0.0,-0.00830078125,0.9677734375,0.22998046875,0.0,0.0,0.0,False,0,4512
0.0,0.0,0.0,0.0,0.0,0.0,0.0,0.0,0.0,0.0,0.0,0.0,0.0,0.0,0.0,False,0,4503
-0.9852719902992249,-0.013175999745726585,0.1756799966096878,1.6800000667572021,-2.257499933242798,1.3650000095367432,-0.1628200113773346,-0.048580002039670944,-0.3504199981689453,0.0,0.0,0.0,0.0,0.0,0.0,False,0,4521
0.0,0.0,0.0,0.0,0.0,0.0,0.0,0.0,0.0,-0.01611328125,0.96728515625,0.23828125,0.0,0.0,0.0,False,0,4527
0.0,0.0,0.0,0.0,0.0,0.0,0.0,0.0,0.0,0.0,0.0,0.0,0.0,0.0,0.0,False,0,4518
-0.9911279678344727,-0.011711999773979187,0.18007199466228485,1.5399999618530273,-2.3012499809265137,1.1549999713897705,-0.1628200113773346,-0.05530000105500221,-0.346640020608902,0.0,0.0,0.0,0.0,0.0,0.0,False,0,4538
0.0,0.0,0.0,0.0,0.0,0.0,0.0,0.0,0.0,-0.01416015625,0.9873046875,0.220703125,0.0,0.0,0.0,False,0,4540
0.0,0.0,0.0,0.0,0.0,0.0,0.0,0.0,0.0,0.0,0.0,0.0,0.0,0.0,0.0,False,0,4531
-0.994055986404419,-0.010247999802231789,0.1815359890460968,1.662500023841858,-2.5199999809265137,1.3737499713897705,-0.15946000814437866,-0.05124000087380409,-0.34860000014305115,0.0,0.0,0.0,0.0,0.0,0.0,False,0,4549
0.0,0.0,0.0,0.0,0.0,0.0,0.0,0.0,0.0,-0.009765625,0.99755859375,0.2197265625,0.0,0.0,0.0,False,0,4555
0.0,0.0,0.0,0.0,0.0,0.0,0.0,0.0,0.0,0.0,0.0,0.0,0.0,0.0,0.0,False,0,4546
-0.994055986404419,-0.020495999604463577,0.17348399758338928,1.6362500190734863,-2.7387499809265137,1.1725000143051147,-0.15946000814437866,-0.05152000114321709,-0.35280001163482666,0.0,0.0,0.0,0.0,0.0,0.0,False,0,4566
0.0,0.0,0.0,0.0,0.0,0.0,0.0,0.0,0.0,-0.01318359375,0.98095703125,0.20849609375,0.0,0.0,0.0,False,0,4568
0.0,0.0,0.0,0.0,0.0,0.0,0.0,0.0,0.0,0.0,0.0,0.0,0.0,0.0,0.0,False,0,4559
-0.9955199956893921,-0.018300000578165054,0.17421600222587585,1.6712499856948853,-2.5112500190734863,1.408750057220459,-0.15931999683380127,-0.04774000123143196,-0.3504199981689453,0.0,0.0,0.0,0.0,0.0,0.0,False,0,4578
0.0,0.0,0.0,0.0,0.0,0.0,0.0,0.0,0.0,-0.0302734375,0.97509765625,0.205078125,0.0,0.0,0.0,False,0,4579
0.0,0.0,0.0,0.0,0.0,0.0,0.0,0.0,0.0,0.0,0.0,0.0,0.0,0.0,0.0,False,0,4575
-0.9903959631919861,-0.011711999773979187,0.1844639927148819,1.5487500429153442,-2.773750066757202,1.53125,-0.16030000150203705,-0.0509600006043911,-0.34776002168655396,0.0,0.0,0.0,0.0,0.0,0.0,False,0,4590
0.0,0.0,0.0,0.0,0.0,0.0,0.0,0.0,0.0,-0.0068359375,0.982421875,0.20751953125,0.0,0.0,0.0,False,0,4596
0.0,0.0,0.0,0.0,0.0,0.0,0.0,0.0,0.0,0.0,0.0,0.0,0.0,0.0,0.0,False,0,4588
-1.0006439685821533,-0.013175999745726585,0.19617599248886108,1.618749976158142,-2.598750114440918,1.347499966621399,-0.16492000222206116,-0.054740000516176224,-0.3512600064277649,0.0,0.0,0.0,0.0,0.0,0.0,False,0,4607
0.0,0.0,0.0,0.0,0.0,0.0,0.0,0.0,0.0,-0.0166015625,0.97314453125,0.220703125,0.0,0.0,0.0,False,0,4609
0.0,0.0,0.0,0.0,0.0,0.0,0.0,0.0,0.0,0.0,0.0,0.0,0.0,0.0,0.0,False,0,4600
-0.9860039949417114,-0.015371999703347683,0.17421600222587585,1.8025000095367432,-2.651250123977661,1.1375000476837158,-0.16072000563144684,-0.05558000132441521,-0.345660001039505,0.0,0.0,0.0,0.0,0.0,0.0,False,0,4618
0.0,0.0,0.0,0.0,0.0,0.0,0.0,0.0,0.0,-0.0078125,0.98779296875,0.21728515625,0.0,0.0,0.0,False,0,4624
0.0,0.0,0.0,0.0,0.0,0.0,0.0,0.0,0.0,0.0,0.0,0.0,0.0,0.0,0.0,False,0,4615
-0.9911279678344727,-0.015371999703347683,0.17202000319957733,1.5924999713897705,-2.458750009536743,1.3562500476837158,-0.16366000473499298,-0.04997999966144562,-0.3453800082206726,0.0,0.0,0.0,0.0,0.0,0.0,False,0,4635
0.0,0.0,0.0,0.0,0.0,0.0,0.0,0.0,0.0,0.0087890625,1.00244140625,0.2021484375,0.0,0.0,0.0,False,0,4637
0.0,0.0,0.0,0.0,0.0,0.0,0.0,0.0,0.0,0.0,0.0,0.0,0.0,0.0,0.0,False,0,4628
-0.9918599724769592,-0.015371999703347683,0.18812400102615356,1.5137499570846558,-2.6862499713897705,1.2949999570846558,-0.16688001155853271,-0.053620003163814545,-0.3451000154018402,0.0,0.0,0.0,0.0,0.0,0.0,False,0,4647
0.0,0.0,0.0,0.0,0.0,0.0,0.0,0.0,0.0,-0.01025390625,0.9892578125,0.203125,0.0,0.0,0.0,False,0,4648
0.0,0.0,0.0,0.0,0.0,0.0,0.0,0.0,0.0,0.0,0.0,0.0,0.0,0.0,0.0,False,0,4644
-0.9874680042266846,-0.00951599981635809,0.18665999174118042,1.6012500524520874,-2.8087499141693115,1.2949999570846558,-0.17010000348091125,-0.05320000275969505,-0.3495800197124481,0.0,0.0,0.0,0.0,0.0,0.0,False,0,4659
0.0,0.0,0.0,0.0,0.0,0.0,0.0,0.0,0.0,-0.0146484375,0.97802734375,0.20703125,0.0,0.0,0.0,False,0,4665
0.0,0.0,0.0,0.0,0.0,0.0,0.0,0.0,0.0,0.0,0.0,0.0,0.0,0.0,0.0,False,0,4657
-0.9984479546546936,-0.01903199963271618,0.1815359890460968,1.4787499904632568,-3.009999990463257,1.3562500476837158,-0.16184000670909882,-0.05124000087380409,-0.3505600094795227,0.0,0.0,0.0,0.0,0.0,0.0,False,0,4676
0.0,0.0,0.0,0.0,0.0,0.0,0.0,0.0,0.0,-0.0029296875,0.990234375,0.203125,0.0,0.0,0.0,False,0,4678
0.0,0.0,0.0,0.0,0.0,0.0,0.0,0.0,0.0,0.0,0.0,0.0,0.0,0.0,0.0,False,0,4669
-0.9845399856567383,-0.014639999717473984,0.18958799540996552,1.6449999809265137,-2.8787500858306885,1.2862499952316284,-0.16030000150203705,-0.051660001277923584,-0.35420000553131104,0.0,0.0,0.0,0.0,0.0,0.0,False,0,4687
0.0,0.0,0.0,0.0,0.0,0.0,0.0,0.0,0.0,-0.0009765625,0.99365234375,0.20361328125,0.0,0.0,0.0,False,0,4693
0.0,0.0,0.0,0.0,0.0,0.0,0.0,0.0,0.0,0.0,0.0,0.0,0.0,0.0,0.0,False,0,4684
-0.994055986404419,-0.018300000578165054,0.18592800199985504,1.5399999618530273,-2.7125000953674316,1.3037500381469727,-0.16660000383853912,-0.05124000087380409,-0.3497200012207031,0.0,0.0,0.0,0.0,0.0,0.0,False,0,4704
0.0,0.0,0.0,0.0,0.0,0.0,0.0,0.0,0.0,-0.0029296875,0.994140625,0.205078125,0.0,0.0,0.0,False,0,4706
0.0,0.0,0.0,0.0,0.0,0.0,0.0,0.0,0.0,0.0,0.0,0.0,0.0,0.0,0.0,False,0,4697
-0.9991799592971802,-0.016835998743772507,0.1815359890460968,1.7675000429153442,-2.7825000286102295,1.3212499618530273,-0.16352000832557678,-0.05138000100851059,-0.3561600148677826,0.0,0.0,0.0,0.0,0.0,0.0,False,0,4715
0.0,0.0,0.0,0.0,0.0,0.0,0.0,0.0,0.0,0.00146484375,0.99609375,0.2060546875,0.0,0.0,0.0,False,0,4722
0.0,0.0,0.0,0.0,0.0,0.0,0.0,0.0,0.0,0.0,0.0,0.0,0.0,0.0,0.0,False,0,4712
-0.9991799592971802,-0.010979999788105488,0.18080399930477142,1.4262499809265137,-2.484999895095825,1.3037500381469727,-0.1624000072479248,-0.04970000311732292,-0.35406002402305603,0.0,0.0,0.0,0.0,0.0,0.0,False,0,4728
0.0,0.0,0.0,0.0,0.0,0.0,0.0,0.0,0.0,-0.00634765625,1.00146484375,0.20947265625,0.0,0.0,0.0,False,0,4733
0.0,0.0,0.0,0.0,0.0,0.0,0.0,0.0,0.0,0.0,0.0,0.0,0.0,0.0,0.0,False,0,4726
-0.9925919771194458,-0.00878399983048439,0.17787599563598633,1.7675000429153442,-2.484999895095825,1.4874999523162842,-0.16646000742912292,-0.04690000042319298,-0.34888002276420593,0.0,0.0,0.0,0.0,0.0,0.0,False,0,4741
0.0,0.0,0.0,0.0,0.0,0.0,0.0,0.0,0.0,-0.00244140625,0.982421875,0.19287109375,0.0,0.0,0.0,False,0,4748
0.0,0.0,0.0,0.0,0.0,0.0,0.0,0.0,0.0,0.0,0.0,0.0,0.0,0.0,0.0,False,0,4739
-0.9896639585494995,-0.015371999703347683,0.19178399443626404,1.715000033378601,-2.450000047683716,1.3737499713897705,-0.1773800104856491,-0.04690000042319298,-0.35447999835014343,0.0,0.0,0.0,0.0,0.0,0.0,False,0,4754
0.0,0.0,0.0,0.0,0.0,0.0,0.0,0.0,0.0,0.0029296875,0.9931640625,0.20751953125,0.0,0.0,0.0,False,0,4761
0.0,0.0,0.0,0.0,0.0,0.0,0.0,0.0,0.0,0.0,0.0,0.0,0.0,0.0,0.0,False,0,4752
-0.9933239817619324,-0.014639999717473984,0.18885599076747894,1.5399999618530273,-2.4412500858306885,1.2074999809265137,-0.16155999898910522,-0.04928000271320343,-0.35308000445365906,0.0,0.0,0.0,0.0,0.0,0.0,False,0,4771
0.0,0.0,0.0,0.0,0.0,0.0,0.0,0.0,0.0,0.00439453125,0.98779296875,0.20751953125,0.0,0.0,0.0,False,0,4773
0.0,0.0,0.0,0.0,0.0,0.0,0.0,0.0,0.0,0.0,0.0,0.0,0.0,0.0,0.0,False,0,4764
-0.9977160096168518,-0.02781599946320057,0.17787599563598633,1.5750000476837158,-2.581249952316284,1.2599999904632568,-0.16926001012325287,-0.04872000217437744,-0.34790000319480896,0.0,0.0,0.0,0.0,0.0,0.0,False,0,4782
0.0,0.0,0.0,0.0,0.0,0.0,0.0,0.0,0.0,0.0087890625,0.98583984375,0.20751953125,0.0,0.0,0.0,False,0,4789
0.0,0.0,0.0,0.0,0.0,0.0,0.0,0.0,0.0,0.0,0.0,0.0,0.0,0.0,0.0,False,0,4779
-0.9969840049743652,-0.016103999689221382,0.18080399930477142,1.6537500619888306,-2.5112500190734863,1.2337499856948853,-0.1675800085067749,-0.0558600015938282,-0.344539999961853,0.0,0.0,0.0,0.0,0.0,0.0,False,0,4795
0.0,0.0,0.0,0.0,0.0,0.0,0.0,0.0,0.0,-0.00048828125,0.98486328125,0.21044921875,0.0,0.0,0.0,False,0,4802
0.0,0.0,0.0,0.0,0.0,0.0,0.0,0.0,0.0,0.0,0.0,0.0,0.0,0.0,0.0,False,0,4793
-0.9991799592971802,-0.02122800052165985,0.17787599563598633,1.5487500429153442,-2.546250104904175,1.3825000524520874,-0.16492000222206116,-0.048020001500844955,-0.35364001989364624,0.0,0.0,0.0,0.0,0.0,0.0,False,0,4812
0.0,0.0,0.0,0.0,0.0,0.0,0.0,0.0,0.0,0.001953125,0.9912109375,0.20556640625,0.0,0.0,0.0,False,0,4814
0.0,0.0,0.0,0.0,0.0,0.0,0.0,0.0,0.0,0.0,0.0,0.0,0.0,0.0,0.0,False,0,4805
-0.9933239817619324,-0.010247999802231789,0.18812400102615356,1.715000033378601,-2.747499942779541,1.4175000190734863,-0.15652000904083252,-0.04914000257849693,-0.35447999835014343,0.0,0.0,0.0,0.0,0.0,0.0,False,0,4823
0.0,0.0,0.0,0.0,0.0,0.0,0.0,0.0,0.0,-0.01025390625,0.98779296875,0.22265625,0.0,0.0,0.0,False,0,4829
0.0,0.0,0.0,0.0,0.0,0.0,0.0,0.0,0.0,0.0,0.0,0.0,0.0,0.0,0.0,False,0,4820
-0.994055986404419,-0.016835998743772507,0.18373200297355652,1.6362500190734863,-2.502500057220459,1.4262499809265137,-0.1629600077867508,-0.056140001863241196,-0.35420000553131104,0.0,0.0,0.0,0.0,0.0,0.0,False,0,4840
0.0,0.0,0.0,0.0,0.0,0.0,0.0,0.0,0.0,-0.02001953125,0.98486328125,0.21923828125,0.0,0.0,0.0,False,0,4842
0.0,0.0,0.0,0.0,0.0,0.0,0.0,0.0,0.0,0.0,0.0,0.0,0.0,0.0,0.0,False,0,4833
-0.9896639585494995,-0.01903199963271618,0.18299999833106995,1.5137499570846558,-2.484999895095825,1.4874999523162842,-0.1670200079679489,-0.05278000235557556,-0.34790000319480896,0.0,0.0,0.0,0.0,0.0,0.0,False,0,4851
0.0,0.0,0.0,0.0,0.0,0.0,0.0,0.0,0.0,-0.00537109375,0.990234375,0.2099609375,0.0,0.0,0.0,False,0,4857
0.0,0.0,0.0,0.0,0.0,0.0,0.0,0.0,0.0,0.0,0.0,0.0,0.0,0.0,0.0,False,0,4848
-0.9947879910469055,-0.007319999858736992,0.18665999174118042,1.8637499809265137,-2.5112500190734863,1.277500033378601,-0.16674000024795532,-0.05348000302910805,-0.34874001145362854,0.0,0.0,0.0,0.0,0.0,0.0,False,0,4869
0.0,0.0,0.0,0.0,0.0,0.0,0.0,0.0,0.0,0.00634765625,0.98779296875,0.21240234375,0.0,0.0,0.0,False,0,4871
0.0,0.0,0.0,0.0,0.0,0.0,0.0,0.0,0.0,0.0,0.0,0.0,0.0,0.0,0.0,False,0,4861
-0.9977160096168518,-0.014639999717473984,0.18519599735736847,1.5924999713897705,-2.362499952316284,1.4524999856948853,-0.1622600108385086,-0.04718000069260597,-0.3516800105571747,0.0,0.0,0.0,0.0,0.0,0.0,False,0,4882
0.0,0.0,0.0,0.0,0.0,0.0,0.0,0.0,0.0,0.005859375,0.990234375,0.20751953125,0.0,0.0,0.0,False,0,4883
0.0,0.0,0.0,0.0,0.0,0.0,0.0,0.0,0.0,0.0,0.0,0.0,0.0,0.0,0.0,False,0,4874
-0.9969840049743652,-0.01903199963271618,0.17787599563598633,1.715000033378601,-2.6162500381469727,1.2949999570846558,-0.16505999863147736,-0.052640002220869064,-0.346780002117157,0.0,0.0,0.0,0.0,0.0,0.0,False,0,4892
0.0,0.0,0.0,0.0,0.0,0.0,0.0,0.0,0.0,-0.02197265625,0.99169921875,0.2060546875,0.0,0.0,0.0,False,0,4898
0.0,0.0,0.0,0.0,0.0,0.0,0.0,0.0,0.0,0.0,0.0,0.0,0.0,0.0,0.0,False,0,4889
-0.9925919771194458,-0.019763998687267303,0.18080399930477142,1.7762500047683716,-2.7300000190734863,1.3300000429153442,-0.16660000383853912,-0.05194000154733658,-0.355320006608963,0.0,0.0,0.0,0.0,0.0,0.0,False,0,4909
