ax,ay,az,gx,gy,gz,mx,my,mz,ts_lowg,hg_ax,hg_ay,hg_az,ts_highg,latitude,longitude,altitude,GPS Lock,ts_gps,state_q0,state_q1,state_q2,state_q3,state_x,state_y,state_z,state_vx,state_vy,state_vz,state_ax,state_ay,state_az,state_omegax,state_omegay,state_omegaz,state_latitude,state_longitude,ts_state,rocketState,ts_RS
-0.2832840085029602,0.0,0.9611159563064575,1.7587499618530273,-2.913749933242798,1.6800000667572021,0.39788001775741577,0.3211600184440613,-0.5047000050544739,23,-0.03125,0.27880859375,0.99853515625,24,0.0,0.0,0.0,False,22,14660154687488.0,14660154687488.0,14660154687488.0,14660154687488.0,14660154687488.0,14660154687488.0,14660154687488.0,14660154687488.0,14660154687488.0,14660154687488.0,14660154687488.0,14660154687488.0,14660154687488.0,14660154687488.0,14660154687488.0,14660154687488.0,14660154687488.0,14660154687488.0,1431655765,1431655765,1431655765
-0.28547999262809753,0.004391999915242195,0.9779520034790039,1.7675000429153442,-2.773750066757202,1.715000033378601,0.39956000447273254,0.32186001539230347,-0.5042800307273865,33,-0.00634765625,0.27587890625,0.99658203125,34,0.0,0.0,0.0,False,32,14660154687488.0,14660154687488.0,14660154687488.0,14660154687488.0,14660154687488.0,14660154687488.0,14660154687488.0,14660154687488.0,14660154687488.0,14660154687488.0,14660154687488.0,14660154687488.0,14660154687488.0,14660154687488.0,14660154687488.0,14660154687488.0,14660154687488.0,14660154687488.0,1431655765,1431655765,1431655765
-0.27889198064804077,0.007319999858736992,0.9860039949417114,1.7324999570846558,-2.8787500858306885,1.6537500619888306,0.3962000012397766,0.3243800103664398,-0.5034400224685669,43,-0.00244140625,0.283203125,0.99267578125,44,0.0,0.0,0.0,False,42,14660154687488.0,14660154687488.0,14660154687488.0,14660154687488.0,14660154687488.0,14660154687488.0,14660154687488.0,14660154687488.0,14660154687488.0,14660154687488.0,14660154687488.0,14660154687488.0,14660154687488.0,14660154687488.0,14660154687488.0,14660154687488.0,14660154687488.0,14660154687488.0,1431655765,1431655765,1431655765
-0.2913359999656677,0.0,0.9845399856567383,1.7675000429153442,-2.8787500858306885,1.6887500286102295,0.3966200053691864,0.3208799958229065,-0.5070800185203552,51,-0.0205078125,0.2685546875,0.9990234375,52,0.0,0.0,0.0,False,50,14660154687488.0,14660154687488.0,14660154687488.0,14660154687488.0,14660154687488.0,14660154687488.0,14660154687488.0,14660154687488.0,14660154687488.0,14660154687488.0,14660154687488.0,14660154687488.0,14660154687488.0,14660154687488.0,14660154687488.0,14660154687488.0,14660154687488.0,14660154687488.0,1431655765,1431655765,1431655765
-0.2869440019130707,-0.0021959999576210976,0.9677039980888367,1.7587499618530273,-2.7387499809265137,1.6800000667572021,0.39382001757621765,0.32298001646995544,-0.5077800154685974,59,-0.02783203125,0.259765625,0.99072265625,60,0.0,0.0,0.0,False,58,14660154687488.0,14660154687488.0,14660154687488.0,14660154687488.0,14660154687488.0,14660154687488.0,14660154687488.0,14660154687488.0,14660154687488.0,14660154687488.0,14660154687488.0,14660154687488.0,14660154687488.0,14660154687488.0,14660154687488.0,14660154687488.0,14660154687488.0,14660154687488.0,1431655765,1431655765,1431655765
-0.28547999262809753,0.00878399983048439,0.9698999524116516,1.6449999809265137,-2.940000057220459,1.6449999809265137,0.39816001057624817,0.32214000821113586,-0.5110000371932983,69,-0.02197265625,0.27490234375,0.99267578125,70,0.0,0.0,0.0,False,68,14660154687488.0,14660154687488.0,14660154687488.0,14660154687488.0,14660154687488.0,14660154687488.0,14660154687488.0,14660154687488.0,14660154687488.0,14660154687488.0,14660154687488.0,14660154687488.0,14660154687488.0,14660154687488.0,14660154687488.0,14660154687488.0,14660154687488.0,14660154687488.0,1431655765,1431655765,1431655765
-0.28181999921798706,0.00878399983048439,0.9794159531593323,1.6887500286102295,-2.870000123977661,1.53125,0.3968999981880188,0.3206000030040741,-0.5065200328826904,77,-0.013671875,0.29248046875,0.9814453125,78,0.0,0.0,0.0,False,76,14660154687488.0,14660154687488.0,14660154687488.0,14660154687488.0,14660154687488.0,14660154687488.0,14660154687488.0,14660154687488.0,14660154687488.0,14660154687488.0,14660154687488.0,14660154687488.0,14660154687488.0,14660154687488.0,14660154687488.0,14660154687488.0,14660154687488.0,14660154687488.0,1431655765,1431655765,1431655765
-0.28255200386047363,0.0058559998869895935,0.9647759795188904,1.5575000047683716,-2.8350000381469727,1.6537500619888306,0.39844000339508057,0.3245200216770172,-0.4985400140285492,85,-0.0029296875,0.29931640625,0.98095703125,86,0.0,0.0,0.0,False,84,14660154687488.0,14660154687488.0,14660154687488.0,14660154687488.0,14660154687488.0,14660154687488.0,14660154687488.0,14660154687488.0,14660154687488.0,14660154687488.0,14660154687488.0,14660154687488.0,14660154687488.0,14660154687488.0,14660154687488.0,14660154687488.0,14660154687488.0,14660154687488.0,1431655765,1431655765,1431655765
-0.28840798139572144,0.006587999872863293,0.9794159531593323,2.047499895095825,-2.817500114440918,1.5575000047683716,0.39424002170562744,0.3211600184440613,-0.5035800337791443,95,-0.00927734375,0.28662109375,0.9814453125,96,0.0,0.0,0.0,False,94,14660154687488.0,14660154687488.0,14660154687488.0,14660154687488.0,14660154687488.0,14660154687488.0,14660154687488.0,14660154687488.0,14660154687488.0,14660154687488.0,14660154687488.0,14660154687488.0,14660154687488.0,14660154687488.0,14660154687488.0,14660154687488.0,14660154687488.0,14660154687488.0,1431655765,1431655765,1431655765
-0.2832840085029602,0.0,0.9728279709815979,1.4350000619888306,-2.9049999713897705,1.6012500524520874,0.39914000034332275,0.32158002257347107,-0.5055400133132935,103,-0.0107421875,0.28173828125,0.9794921875,104,0.0,0.0,0.0,False,102,14660154687488.0,14660154687488.0,14660154687488.0,14660154687488.0,14660154687488.0,14660154687488.0,14660154687488.0,14660154687488.0,14660154687488.0,14660154687488.0,14660154687488.0,14660154687488.0,14660154687488.0,14660154687488.0,14660154687488.0,14660154687488.0,14660154687488.0,14660154687488.0,1431655765,1431655765,1431655765
-0.2869440019130707,0.005123999901115894,0.9757559895515442,1.5225000381469727,-2.887500047683716,1.9075000286102295,0.39452001452445984,0.31793999671936035,-0.5054000020027161,111,-0.0126953125,0.28369140625,0.98486328125,112,0.0,0.0,0.0,False,110,14660154687488.0,14660154687488.0,14660154687488.0,14660154687488.0,14660154687488.0,14660154687488.0,14660154687488.0,14660154687488.0,14660154687488.0,14660154687488.0,14660154687488.0,14660154687488.0,14660154687488.0,14660154687488.0,14660154687488.0,14660154687488.0,14660154687488.0,14660154687488.0,1431655765,1431655765,1431655765
-0.2913359999656677,-0.0014639999717473984,0.9698999524116516,1.5575000047683716,-2.8787500858306885,1.5924999713897705,0.3964800238609314,0.32199999690055847,-0.5013400316238403,121,-0.013671875,0.2861328125,0.98779296875,122,0.0,0.0,0.0,False,120,14660154687488.0,14660154687488.0,14660154687488.0,14660154687488.0,14660154687488.0,14660154687488.0,14660154687488.0,14660154687488.0,14660154687488.0,14660154687488.0,14660154687488.0,14660154687488.0,14660154687488.0,14660154687488.0,14660154687488.0,14660154687488.0,14660154687488.0,14660154687488.0,1431655765,1431655765,1431655765
-0.2840159833431244,-0.0007319999858736992,0.9779520034790039,1.75,-2.8350000381469727,1.5575000047683716,0.39368000626564026,0.31752002239227295,-0.5059599876403809,129,-0.0126953125,0.2783203125,0.99072265625,130,0.0,0.0,0.0,False,128,14660154687488.0,14660154687488.0,14660154687488.0,14660154687488.0,14660154687488.0,14660154687488.0,14660154687488.0,14660154687488.0,14660154687488.0,14660154687488.0,14660154687488.0,14660154687488.0,14660154687488.0,14660154687488.0,14660154687488.0,14660154687488.0,14660154687488.0,14660154687488.0,1431655765,1431655765,1431655765
-0.28840798139572144,0.0058559998869895935,0.9764879941940308,1.5575000047683716,-2.9749999046325684,1.7062499523162842,0.39480000734329224,0.31668001413345337,-0.5047000050544739,137,-0.01025390625,0.2548828125,0.9853515625,138,0.0,0.0,0.0,False,136,14660154687488.0,14660154687488.0,14660154687488.0,14660154687488.0,14660154687488.0,14660154687488.0,14660154687488.0,14660154687488.0,14660154687488.0,14660154687488.0,14660154687488.0,14660154687488.0,14660154687488.0,14660154687488.0,14660154687488.0,14660154687488.0,14660154687488.0,14660154687488.0,1431655765,1431655765,1431655765
-0.27889198064804077,0.003659999929368496,0.9779520034790039,1.6712499856948853,-2.9574999809265137,1.5137499570846558,0.39326000213623047,0.32396000623703003,-0.5091800093650818,145,-0.009765625,0.25537109375,0.982421875,146,0.0,0.0,0.0,False,144,14660154687488.0,14660154687488.0,14660154687488.0,14660154687488.0,14660154687488.0,14660154687488.0,14660154687488.0,14660154687488.0,14660154687488.0,14660154687488.0,14660154687488.0,14660154687488.0,14660154687488.0,14660154687488.0,14660154687488.0,14660154687488.0,14660154687488.0,14660154687488.0,1431655765,1431655765,1431655765
-0.28547999262809753,-0.0029279999434947968,0.9691680073738098,1.6362500190734863,-2.913749933242798,1.6974999904632568,0.3922800123691559,0.32199999690055847,-0.5023199915885925,155,-0.013671875,0.271484375,0.98193359375,156,0.0,0.0,0.0,False,154,14660154687488.0,14660154687488.0,14660154687488.0,14660154687488.0,14660154687488.0,14660154687488.0,14660154687488.0,14660154687488.0,14660154687488.0,14660154687488.0,14660154687488.0,14660154687488.0,14660154687488.0,14660154687488.0,14660154687488.0,14660154687488.0,14660154687488.0,14660154687488.0,1431655765,1431655765,1431655765
-0.28474798798561096,-0.0021959999576210976,0.9808799624443054,1.5750000476837158,-2.8524999618530273,1.5487500429153442,0.39368000626564026,0.32269999384880066,-0.50736004114151,163,-0.015625,0.2763671875,0.98876953125,164,0.0,0.0,0.0,False,162,14660154687488.0,14660154687488.0,14660154687488.0,14660154687488.0,14660154687488.0,14660154687488.0,14660154687488.0,14660154687488.0,14660154687488.0,14660154687488.0,14660154687488.0,14660154687488.0,14660154687488.0,14660154687488.0,14660154687488.0,14660154687488.0,14660154687488.0,14660154687488.0,1431655765,1431655765,1431655765
-0.28474798798561096,0.0014639999717473984,0.9713639616966248,1.6100000143051147,-3.106250047683716,1.5750000476837158,0.3911600112915039,0.3201799988746643,-0.5081999897956848,171,-0.02001953125,0.27099609375,0.990234375,172,0.0,0.0,0.0,False,170,14660154687488.0,14660154687488.0,14660154687488.0,14660154687488.0,14660154687488.0,14660154687488.0,14660154687488.0,14660154687488.0,14660154687488.0,14660154687488.0,14660154687488.0,14660154687488.0,14660154687488.0,14660154687488.0,14660154687488.0,14660154687488.0,14660154687488.0,14660154687488.0,1431655765,1431655765,1431655765
-0.2810879945755005,-0.0014639999717473984,0.9713639616966248,1.8025000095367432,-2.8787500858306885,1.5137499570846558,0.39298000931739807,0.32354000210762024,-0.5077800154685974,181,-0.01025390625,0.28759765625,0.9814453125,182,0.0,0.0,0.0,False,180,14660154687488.0,14660154687488.0,14660154687488.0,14660154687488.0,14660154687488.0,14660154687488.0,14660154687488.0,14660154687488.0,14660154687488.0,14660154687488.0,14660154687488.0,14660154687488.0,14660154687488.0,14660154687488.0,14660154687488.0,14660154687488.0,14660154687488.0,14660154687488.0,1431655765,1431655765,1431655765
-0.2920680046081543,0.0,0.9830759763717651,1.4612499475479126,-2.773750066757202,1.715000033378601,0.39298000931739807,0.32802000641822815,-0.5094600319862366,189,-0.00439453125,0.2958984375,0.96826171875,190,0.0,0.0,0.0,False,188,14660154687488.0,14660154687488.0,14660154687488.0,14660154687488.0,14660154687488.0,14660154687488.0,14660154687488.0,14660154687488.0,14660154687488.0,14660154687488.0,14660154687488.0,14660154687488.0,14660154687488.0,14660154687488.0,14660154687488.0,14660154687488.0,14660154687488.0,14660154687488.0,1431655765,1431655765,1431655765
-0.28547999262809753,-0.004391999915242195,0.9830759763717651,1.8637499809265137,-2.625,1.627500057220459,0.39465999603271484,0.3242399990558624,-0.5087600350379944,197,-0.00830078125,0.30224609375,0.97119140625,198,0.0,0.0,0.0,False,196,14660154687488.0,14660154687488.0,14660154687488.0,14660154687488.0,14660154687488.0,14660154687488.0,14660154687488.0,14660154687488.0,14660154687488.0,14660154687488.0,14660154687488.0,14660154687488.0,14660154687488.0,14660154687488.0,14660154687488.0,14660154687488.0,14660154687488.0,14660154687488.0,1431655765,1431655765,1431655765
-0.29280000925064087,-0.0014639999717473984,0.9691680073738098,1.5049999952316284,-2.6424999237060547,1.8287500143051147,0.3905999958515167,0.32368001341819763,-0.506380021572113,207,-0.00537109375,0.30615234375,0.970703125,208,0.0,0.0,0.0,False,206,14660154687488.0,14660154687488.0,14660154687488.0,14660154687488.0,14660154687488.0,14660154687488.0,14660154687488.0,14660154687488.0,14660154687488.0,14660154687488.0,14660154687488.0,14660154687488.0,14660154687488.0,14660154687488.0,14660154687488.0,14660154687488.0,14660154687488.0,14660154687488.0,1431655765,1431655765,1431655765
-0.2862119972705841,-0.0007319999858736992,0.9764879941940308,1.408750057220459,-2.887500047683716,1.7237499952316284,0.39298000931739807,0.3245200216770172,-0.5023199915885925,215,-0.0126953125,0.2890625,0.97265625,216,0.0,0.0,0.0,False,214,14660154687488.0,14660154687488.0,14660154687488.0,14660154687488.0,14660154687488.0,14660154687488.0,14660154687488.0,14660154687488.0,14660154687488.0,14660154687488.0,14660154687488.0,14660154687488.0,14660154687488.0,14660154687488.0,14660154687488.0,14660154687488.0,14660154687488.0,14660154687488.0,1431655765,1431655765,1431655765
-0.28255200386047363,0.0021959999576210976,0.965507984161377,1.5750000476837158,-2.8262500762939453,1.6012500524520874,0.39368000626564026,0.326200008392334,-0.4992400109767914,223,-0.0234375,0.29150390625,0.9736328125,224,0.0,0.0,0.0,False,222,14660154687488.0,14660154687488.0,14660154687488.0,14660154687488.0,14660154687488.0,14660154687488.0,14660154687488.0,14660154687488.0,14660154687488.0,14660154687488.0,14660154687488.0,14660154687488.0,14660154687488.0,14660154687488.0,14660154687488.0,14660154687488.0,14660154687488.0,14660154687488.0,1431655765,1431655765,1431655765
-0.2840159833431244,-0.0007319999858736992,0.974291980266571,1.8025000095367432,-2.8787500858306885,1.6449999809265137,0.3913000226020813,0.3206000030040741,-0.5024600028991699,233,-0.02294921875,0.2890625,0.9755859375,234,0.0,0.0,0.0,False,232,14660154687488.0,14660154687488.0,14660154687488.0,14660154687488.0,14660154687488.0,14660154687488.0,14660154687488.0,14660154687488.0,14660154687488.0,14660154687488.0,14660154687488.0,14660154687488.0,14660154687488.0,14660154687488.0,14660154687488.0,14660154687488.0,14660154687488.0,14660154687488.0,1431655765,1431655765,1431655765
-0.28474798798561096,-0.0014639999717473984,0.9794159531593323,1.627500057220459,-2.9312500953674316,1.627500057220459,0.3955000042915344,0.32298001646995544,-0.5021800398826599,241,-0.01025390625,0.2998046875,0.955078125,242,0.0,0.0,0.0,False,240,14660154687488.0,14660154687488.0,14660154687488.0,14660154687488.0,14660154687488.0,14660154687488.0,14660154687488.0,14660154687488.0,14660154687488.0,14660154687488.0,14660154687488.0,14660154687488.0,14660154687488.0,14660154687488.0,14660154687488.0,14660154687488.0,14660154687488.0,14660154687488.0,1431655765,1431655765,1431655765
-0.2803559899330139,0.0007319999858736992,0.9669719934463501,1.846250057220459,-2.747499942779541,1.6712499856948853,0.3905999958515167,0.3212999999523163,-0.4974200129508972,249,-0.033203125,0.28125,0.96826171875,250,0.0,0.0,0.0,False,248,14660154687488.0,14660154687488.0,14660154687488.0,14660154687488.0,14660154687488.0,14660154687488.0,14660154687488.0,14660154687488.0,14660154687488.0,14660154687488.0,14660154687488.0,14660154687488.0,14660154687488.0,14660154687488.0,14660154687488.0,14660154687488.0,14660154687488.0,14660154687488.0,1431655765,1431655765,1431655765
-0.29280000925064087,-0.0021959999576210976,0.9691680073738098,1.6887500286102295,-2.765000104904175,1.618749976158142,0.38906002044677734,0.3210200071334839,-0.5024600028991699,259,-0.029296875,0.265625,0.9853515625,260,0.0,0.0,0.0,False,258,14660154687488.0,14660154687488.0,14660154687488.0,14660154687488.0,14660154687488.0,14660154687488.0,14660154687488.0,14660154687488.0,14660154687488.0,14660154687488.0,14660154687488.0,14660154687488.0,14660154687488.0,14660154687488.0,14660154687488.0,14660154687488.0,14660154687488.0,14660154687488.0,1431655765,1431655765,1431655765
-0.2752319872379303,0.0014639999717473984,0.9794159531593323,1.75,-2.8087499141693115,1.5225000381469727,0.39438000321388245,0.32284000515937805,-0.4995200037956238,267,-0.029296875,0.265625,0.9853515625,268,0.0,0.0,0.0,False,266,14660154687488.0,14660154687488.0,14660154687488.0,14660154687488.0,14660154687488.0,14660154687488.0,14660154687488.0,14660154687488.0,14660154687488.0,14660154687488.0,14660154687488.0,14660154687488.0,14660154687488.0,14660154687488.0,14660154687488.0,14660154687488.0,14660154687488.0,14660154687488.0,1431655765,1431655765,1431655765
-0.29060399532318115,0.0021959999576210976,0.9779520034790039,1.7762500047683716,-2.8787500858306885,1.4787499904632568,0.39508000016212463,0.3207400143146515,-0.5007799863815308,275,-0.01416015625,0.26708984375,0.990234375,276,0.0,0.0,0.0,False,274,14660154687488.0,14660154687488.0,14660154687488.0,14660154687488.0,14660154687488.0,14660154687488.0,14660154687488.0,14660154687488.0,14660154687488.0,14660154687488.0,14660154687488.0,14660154687488.0,14660154687488.0,14660154687488.0,14660154687488.0,14660154687488.0,14660154687488.0,14660154687488.0,1431655765,1431655765,1431655765
-0.28474798798561096,0.0029279999434947968,0.9794159531593323,1.6974999904632568,-3.0537500381469727,1.7675000429153442,0.38989999890327454,0.32228001952171326,-0.5049800276756287,283,-0.02197265625,0.26611328125,0.99072265625,284,0.0,0.0,0.0,False,282,14660154687488.0,14660154687488.0,14660154687488.0,14660154687488.0,14660154687488.0,14660154687488.0,14660154687488.0,14660154687488.0,14660154687488.0,14660154687488.0,14660154687488.0,14660154687488.0,14660154687488.0,14660154687488.0,14660154687488.0,14660154687488.0,14660154687488.0,14660154687488.0,1431655765,1431655765,1431655765
-0.28547999262809753,0.0014639999717473984,0.9706319570541382,1.7324999570846558,-2.703749895095825,1.7062499523162842,0.3911600112915039,0.32214000821113586,-0.5016199946403503,293,-0.00537109375,0.2822265625,0.970703125,294,0.0,0.0,0.0,False,292,14660154687488.0,14660154687488.0,14660154687488.0,14660154687488.0,14660154687488.0,14660154687488.0,14660154687488.0,14660154687488.0,14660154687488.0,14660154687488.0,14660154687488.0,14660154687488.0,14660154687488.0,14660154687488.0,14660154687488.0,14660154687488.0,14660154687488.0,14660154687488.0,1431655765,1431655765,1431655765
-0.27889198064804077,-0.0014639999717473984,0.974291980266571,1.7762500047683716,-2.8612499237060547,1.7237499952316284,0.3953600227832794,0.3204600214958191,-0.5045599937438965,301,0.01123046875,0.2998046875,0.96435546875,302,0.0,0.0,0.0,False,300,14660154687488.0,14660154687488.0,14660154687488.0,14660154687488.0,14660154687488.0,14660154687488.0,14660154687488.0,14660154687488.0,14660154687488.0,14660154687488.0,14660154687488.0,14660154687488.0,14660154687488.0,14660154687488.0,14660154687488.0,14660154687488.0,14660154687488.0,14660154687488.0,1431655765,1431655765,1431655765
-0.2920680046081543,0.0,0.9713639616966248,1.662500023841858,-2.703749895095825,1.6012500524520874,0.38948002457618713,0.3253600001335144,-0.5045599937438965,309,0.0126953125,0.30517578125,0.96240234375,310,0.0,0.0,0.0,False,308,14660154687488.0,14660154687488.0,14660154687488.0,14660154687488.0,14660154687488.0,14660154687488.0,14660154687488.0,14660154687488.0,14660154687488.0,14660154687488.0,14660154687488.0,14660154687488.0,14660154687488.0,14660154687488.0,14660154687488.0,14660154687488.0,14660154687488.0,14660154687488.0,1431655765,1431655765,1431655765
-0.27669599652290344,0.0014639999717473984,0.981611967086792,1.8112499713897705,-2.721250057220459,1.53125,0.3913000226020813,0.32340002059936523,-0.5024600028991699,319,-0.00732421875,0.28857421875,0.9765625,320,0.0,0.0,0.0,False,318,14660154687488.0,14660154687488.0,14660154687488.0,14660154687488.0,14660154687488.0,14660154687488.0,14660154687488.0,14660154687488.0,14660154687488.0,14660154687488.0,14660154687488.0,14660154687488.0,14660154687488.0,14660154687488.0,14660154687488.0,14660154687488.0,14660154687488.0,14660154687488.0,1431655765,1431655765,1431655765
-0.28547999262809753,0.0029279999434947968,0.9779520034790039,1.7762500047683716,-2.9312500953674316,1.7237499952316284,0.3918600082397461,0.32381999492645264,-0.5020400285720825,327,-0.005859375,0.2919921875,0.96923828125,328,0.0,0.0,0.0,False,326,14660154687488.0,14660154687488.0,14660154687488.0,14660154687488.0,14660154687488.0,14660154687488.0,14660154687488.0,14660154687488.0,14660154687488.0,14660154687488.0,14660154687488.0,14660154687488.0,14660154687488.0,14660154687488.0,14660154687488.0,14660154687488.0,14660154687488.0,14660154687488.0,1431655765,1431655765,1431655765
-0.2840159833431244,-0.0021959999576210976,0.9735599756240845,1.7237499952316284,-2.9487500190734863,1.5837500095367432,0.3920000195503235,0.32228001952171326,-0.5016199946403503,335,-0.01416015625,0.2939453125,0.9580078125,336,0.0,0.0,0.0,False,334,14660154687488.0,14660154687488.0,14660154687488.0,14660154687488.0,14660154687488.0,14660154687488.0,14660154687488.0,14660154687488.0,14660154687488.0,14660154687488.0,14660154687488.0,14660154687488.0,14660154687488.0,14660154687488.0,14660154687488.0,14660154687488.0,14660154687488.0,14660154687488.0,1431655765,1431655765,1431655765
-0.2869440019130707,-0.0014639999717473984,0.9720959663391113,1.784999966621399,-2.896250009536743,1.7762500047683716,0.39340001344680786,0.3248000144958496,-0.5054000020027161,345,-0.02490234375,0.26708984375,0.96044921875,346,0.0,0.0,0.0,False,344,14660154687488.0,14660154687488.0,14660154687488.0,14660154687488.0,14660154687488.0,14660154687488.0,14660154687488.0,14660154687488.0,14660154687488.0,14660154687488.0,14660154687488.0,14660154687488.0,14660154687488.0,14660154687488.0,14660154687488.0,14660154687488.0,14660154687488.0,14660154687488.0,1431655765,1431655765,1431655765
-0.2840159833431244,-0.0007319999858736992,0.9779520034790039,1.9950000047683716,-3.0012500286102295,1.8025000095367432,0.3922800123691559,0.32340002059936523,-0.4977000057697296,353,-0.033203125,0.25732421875,0.98486328125,354,0.0,0.0,0.0,False,352,14660154687488.0,14660154687488.0,14660154687488.0,14660154687488.0,14660154687488.0,14660154687488.0,14660154687488.0,14660154687488.0,14660154687488.0,14660154687488.0,14660154687488.0,14660154687488.0,14660154687488.0,14660154687488.0,14660154687488.0,14660154687488.0,14660154687488.0,14660154687488.0,1431655765,1431655765,1431655765
-0.2781600058078766,0.0029279999434947968,0.9786840081214905,1.784999966621399,-2.721250057220459,1.75,0.3872400224208832,0.32214000821113586,-0.5028800368309021,361,-0.04052734375,0.25732421875,1.00048828125,362,0.0,0.0,0.0,False,360,14660154687488.0,14660154687488.0,14660154687488.0,14660154687488.0,14660154687488.0,14660154687488.0,14660154687488.0,14660154687488.0,14660154687488.0,14660154687488.0,14660154687488.0,14660154687488.0,14660154687488.0,14660154687488.0,14660154687488.0,14660154687488.0,14660154687488.0,14660154687488.0,1431655765,1431655765,1431655765
-0.28547999262809753,0.0,0.9786840081214905,1.7062499523162842,-2.791249990463257,1.8287500143051147,0.39004001021385193,0.3246600031852722,-0.5003600120544434,371,-0.037109375,0.26025390625,1.00634765625,372,0.0,0.0,0.0,False,370,14660154687488.0,14660154687488.0,14660154687488.0,14660154687488.0,14660154687488.0,14660154687488.0,14660154687488.0,14660154687488.0,14660154687488.0,14660154687488.0,14660154687488.0,14660154687488.0,14660154687488.0,14660154687488.0,14660154687488.0,14660154687488.0,14660154687488.0,14660154687488.0,1431655765,1431655765,1431655765
-0.28547999262809753,0.0021959999576210976,0.9772199988365173,1.6800000667572021,-2.6075000762939453,1.6362500190734863,0.3913000226020813,0.3291400074958801,-0.499099999666214,379,-0.03369140625,0.26611328125,1.00537109375,380,0.0,0.0,0.0,False,378,14660154687488.0,14660154687488.0,14660154687488.0,14660154687488.0,14660154687488.0,14660154687488.0,14660154687488.0,14660154687488.0,14660154687488.0,14660154687488.0,14660154687488.0,14660154687488.0,14660154687488.0,14660154687488.0,14660154687488.0,14660154687488.0,14660154687488.0,14660154687488.0,1431655765,1431655765,1431655765
-0.28181999921798706,-0.0014639999717473984,0.9779520034790039,1.7762500047683716,-2.773750066757202,1.5225000381469727,0.3921400010585785,0.32326000928878784,-0.5049800276756287,387,-0.04052734375,0.2724609375,1.00048828125,388,0.0,0.0,0.0,False,386,14660154687488.0,14660154687488.0,14660154687488.0,14660154687488.0,14660154687488.0,14660154687488.0,14660154687488.0,14660154687488.0,14660154687488.0,14660154687488.0,14660154687488.0,14660154687488.0,14660154687488.0,14660154687488.0,14660154687488.0,14660154687488.0,14660154687488.0,14660154687488.0,1431655765,1431655765,1431655765
-0.28767600655555725,-0.0014639999717473984,0.9794159531593323,1.6887500286102295,-2.887500047683716,1.6449999809265137,0.395220011472702,0.326200008392334,-0.5006400346755981,397,-0.0283203125,0.27978515625,0.99365234375,398,0.0,0.0,0.0,False,396,14660154687488.0,14660154687488.0,14660154687488.0,14660154687488.0,14660154687488.0,14660154687488.0,14660154687488.0,14660154687488.0,14660154687488.0,14660154687488.0,14660154687488.0,14660154687488.0,14660154687488.0,14660154687488.0,14660154687488.0,14660154687488.0,14660154687488.0,14660154687488.0,1431655765,1431655765,1431655765
-0.2840159833431244,-0.0014639999717473984,0.9786840081214905,1.7762500047683716,-2.7387499809265137,1.8725000619888306,0.3927000164985657,0.32774001359939575,-0.49574002623558044,405,-0.0224609375,0.28076171875,0.98486328125,406,0.0,0.0,0.0,False,404,14660154687488.0,14660154687488.0,14660154687488.0,14660154687488.0,14660154687488.0,14660154687488.0,14660154687488.0,14660154687488.0,14660154687488.0,14660154687488.0,14660154687488.0,14660154687488.0,14660154687488.0,14660154687488.0,14660154687488.0,14660154687488.0,14660154687488.0,14660154687488.0,1431655765,1431655765,1431655765
-0.29060399532318115,0.005123999901115894,0.9772199988365173,1.6012500524520874,-2.799999952316284,1.8725000619888306,0.39452001452445984,0.3243800103664398,-0.4968600273132324,413,-0.01904296875,0.2890625,0.96826171875,414,0.0,0.0,0.0,False,412,14660154687488.0,14660154687488.0,14660154687488.0,14660154687488.0,14660154687488.0,14660154687488.0,14660154687488.0,14660154687488.0,14660154687488.0,14660154687488.0,14660154687488.0,14660154687488.0,14660154687488.0,14660154687488.0,14660154687488.0,14660154687488.0,14660154687488.0,14660154687488.0,1431655765,1431655765,1431655765
-0.2869440019130707,-0.0029279999434947968,0.9750239849090576,1.566249966621399,-3.0450000762939453,1.662500023841858,0.3924200236797333,0.3299800157546997,-0.4995200037956238,421,-0.0283203125,0.27880859375,0.97509765625,422,0.0,0.0,0.0,False,420,14660154687488.0,14660154687488.0,14660154687488.0,14660154687488.0,14660154687488.0,14660154687488.0,14660154687488.0,14660154687488.0,14660154687488.0,14660154687488.0,14660154687488.0,14660154687488.0,14660154687488.0,14660154687488.0,14660154687488.0,14660154687488.0,14660154687488.0,14660154687488.0,1431655765,1431655765,1431655765
-0.28181999921798706,0.0007319999858736992,0.9691680073738098,1.7937500476837158,-2.7300000190734863,1.6974999904632568,0.3957799971103668,0.3245200216770172,-0.5020400285720825,431,-0.02001953125,0.2744140625,0.994140625,432,0.0,0.0,0.0,False,430,14660154687488.0,14660154687488.0,14660154687488.0,14660154687488.0,14660154687488.0,14660154687488.0,14660154687488.0,14660154687488.0,14660154687488.0,14660154687488.0,14660154687488.0,14660154687488.0,14660154687488.0,14660154687488.0,14660154687488.0,14660154687488.0,14660154687488.0,14660154687488.0,1431655765,1431655765,1431655765
-0.28255200386047363,0.004391999915242195,0.9698999524116516,1.6974999904632568,-2.6600000858306885,1.75,0.39900001883506775,0.3253600001335144,-0.498960018157959,439,-0.03125,0.263671875,1.00048828125,440,0.0,0.0,0.0,False,438,14660154687488.0,14660154687488.0,14660154687488.0,14660154687488.0,14660154687488.0,14660154687488.0,14660154687488.0,14660154687488.0,14660154687488.0,14660154687488.0,14660154687488.0,14660154687488.0,14660154687488.0,14660154687488.0,14660154687488.0,14660154687488.0,14660154687488.0,14660154687488.0,1431655765,1431655765,1431655765
-0.28840798139572144,0.0014639999717473984,0.9823439717292786,1.7937500476837158,-2.7825000286102295,1.6362500190734863,0.3977400064468384,0.32802000641822815,-0.5006400346755981,447,-0.03955078125,0.265625,1.00146484375,448,0.0,0.0,0.0,False,446,14660154687488.0,14660154687488.0,14660154687488.0,14660154687488.0,14660154687488.0,14660154687488.0,14660154687488.0,14660154687488.0,14660154687488.0,14660154687488.0,14660154687488.0,14660154687488.0,14660154687488.0,14660154687488.0,14660154687488.0,14660154687488.0,14660154687488.0,14660154687488.0,1431655765,1431655765,1431655765
-0.28474798798561096,-0.0014639999717473984,0.9735599756240845,1.75,-2.6600000858306885,1.6100000143051147,0.396340012550354,0.32368001341819763,-0.5021800398826599,457,-0.03564453125,0.26904296875,0.99951171875,458,0.0,0.0,0.0,False,456,14660154687488.0,14660154687488.0,14660154687488.0,14660154687488.0,14660154687488.0,14660154687488.0,14660154687488.0,14660154687488.0,14660154687488.0,14660154687488.0,14660154687488.0,14660154687488.0,14660154687488.0,14660154687488.0,14660154687488.0,14660154687488.0,14660154687488.0,14660154687488.0,1431655765,1431655765,1431655765
-0.2781600058078766,0.0014639999717473984,0.965507984161377,1.881250023841858,-2.668750047683716,1.6537500619888306,0.3976000249385834,0.32284000515937805,-0.5019000172615051,465,-0.02001953125,0.2890625,0.99072265625,466,0.0,0.0,0.0,False,464,14660154687488.0,14660154687488.0,14660154687488.0,14660154687488.0,14660154687488.0,14660154687488.0,14660154687488.0,14660154687488.0,14660154687488.0,14660154687488.0,14660154687488.0,14660154687488.0,14660154687488.0,14660154687488.0,14660154687488.0,14660154687488.0,14660154687488.0,14660154687488.0,1431655765,1431655765,1431655765
-0.28474798798561096,0.003659999929368496,0.9691680073738098,1.6012500524520874,-2.887500047683716,1.784999966621399,0.39871999621391296,0.32354000210762024,-0.4971400201320648,473,-0.0087890625,0.30126953125,0.99658203125,474,0.0,0.0,0.0,False,472,14660154687488.0,14660154687488.0,14660154687488.0,14660154687488.0,14660154687488.0,14660154687488.0,14660154687488.0,14660154687488.0,14660154687488.0,14660154687488.0,14660154687488.0,14660154687488.0,14660154687488.0,14660154687488.0,14660154687488.0,14660154687488.0,14660154687488.0,14660154687488.0,1431655765,1431655765,1431655765
-0.2862119972705841,0.0,0.9772199988365173,1.399999976158142,-2.6600000858306885,1.6449999809265137,0.39956000447273254,0.3217200040817261,-0.5047000050544739,483,-0.0078125,0.29150390625,0.9892578125,484,0.0,0.0,0.0,False,482,14660154687488.0,14660154687488.0,14660154687488.0,14660154687488.0,14660154687488.0,14660154687488.0,14660154687488.0,14660154687488.0,14660154687488.0,14660154687488.0,14660154687488.0,14660154687488.0,14660154687488.0,14660154687488.0,14660154687488.0,14660154687488.0,14660154687488.0,14660154687488.0,1431655765,1431655765,1431655765
-0.289139986038208,0.0007319999858736992,0.9764879941940308,1.8899999856948853,-2.922499895095825,1.6887500286102295,0.39871999621391296,0.3189200162887573,-0.5035800337791443,491,-0.00537109375,0.27978515625,0.9697265625,492,0.0,0.0,0.0,False,490,14660154687488.0,14660154687488.0,14660154687488.0,14660154687488.0,14660154687488.0,14660154687488.0,14660154687488.0,14660154687488.0,14660154687488.0,14660154687488.0,14660154687488.0,14660154687488.0,14660154687488.0,14660154687488.0,14660154687488.0,14660154687488.0,14660154687488.0,14660154687488.0,1431655765,1431655765,1431655765
-0.2840159833431244,0.0029279999434947968,0.9677039980888367,1.6012500524520874,-2.7825000286102295,1.6449999809265137,0.4001200199127197,0.3211600184440613,-0.5014800429344177,499,-0.0087890625,0.2548828125,0.97998046875,500,0.0,0.0,0.0,False,498,14660154687488.0,14660154687488.0,14660154687488.0,14660154687488.0,14660154687488.0,14660154687488.0,14660154687488.0,14660154687488.0,14660154687488.0,14660154687488.0,14660154687488.0,14660154687488.0,14660154687488.0,14660154687488.0,14660154687488.0,14660154687488.0,14660154687488.0,14660154687488.0,1431655765,1431655765,1431655765
-0.27889198064804077,0.003659999929368496,0.9772199988365173,1.7237499952316284,-2.651250123977661,1.6800000667572021,0.39858001470565796,0.3210200071334839,-0.4975600242614746,509,-0.0185546875,0.2607421875,0.99853515625,510,0.0,0.0,0.0,False,508,14660154687488.0,14660154687488.0,14660154687488.0,14660154687488.0,14660154687488.0,14660154687488.0,14660154687488.0,14660154687488.0,14660154687488.0,14660154687488.0,14660154687488.0,14660154687488.0,14660154687488.0,14660154687488.0,14660154687488.0,14660154687488.0,14660154687488.0,14660154687488.0,1431655765,1431655765,1431655765
-0.27376800775527954,-0.0007319999858736992,0.9764879941940308,1.8112499713897705,-2.773750066757202,1.6100000143051147,0.39340001344680786,0.31836000084877014,-0.498960018157959,517,-0.005859375,0.28515625,0.9921875,518,0.0,0.0,0.0,False,516,14660154687488.0,14660154687488.0,14660154687488.0,14660154687488.0,14660154687488.0,14660154687488.0,14660154687488.0,14660154687488.0,14660154687488.0,14660154687488.0,14660154687488.0,14660154687488.0,14660154687488.0,14660154687488.0,14660154687488.0,14660154687488.0,14660154687488.0,14660154687488.0,1431655765,1431655765,1431655765
-0.2869440019130707,0.0029279999434947968,0.9794159531593323,1.6449999809265137,-2.6424999237060547,1.8637499809265137,0.4005400240421295,0.3212999999523163,-0.49574002623558044,525,0.00537109375,0.3046875,0.97900390625,526,0.0,0.0,0.0,False,524,14660154687488.0,14660154687488.0,14660154687488.0,14660154687488.0,14660154687488.0,14660154687488.0,14660154687488.0,14660154687488.0,14660154687488.0,14660154687488.0,14660154687488.0,14660154687488.0,14660154687488.0,14660154687488.0,14660154687488.0,14660154687488.0,14660154687488.0,14660154687488.0,1431655765,1431655765,1431655765
-0.28181999921798706,-0.0007319999858736992,0.974291980266571,1.6800000667572021,-2.870000123977661,1.7675000429153442,0.39424002170562744,0.3196200132369995,-0.4968600273132324,535,0.0009765625,0.3134765625,0.96923828125,536,0.0,0.0,0.0,False,534,14660154687488.0,14660154687488.0,14660154687488.0,14660154687488.0,14660154687488.0,14660154687488.0,14660154687488.0,14660154687488.0,14660154687488.0,14660154687488.0,14660154687488.0,14660154687488.0,14660154687488.0,14660154687488.0,14660154687488.0,14660154687488.0,14660154687488.0,14660154687488.0,1431655765,1431655765,1431655765
-0.28255200386047363,0.0058559998869895935,0.9713639616966248,1.715000033378601,-2.8524999618530273,1.75,0.3966200053691864,0.32381999492645264,-0.4985400140285492,543,-0.01025390625,0.28564453125,0.98583984375,544,0.0,0.0,0.0,False,542,14660154687488.0,14660154687488.0,14660154687488.0,14660154687488.0,14660154687488.0,14660154687488.0,14660154687488.0,14660154687488.0,14660154687488.0,14660154687488.0,14660154687488.0,14660154687488.0,14660154687488.0,14660154687488.0,14660154687488.0,14660154687488.0,14660154687488.0,14660154687488.0,1431655765,1431655765,1431655765
-0.2781600058078766,0.0007319999858736992,0.9691680073738098,1.8025000095367432,-2.8612499237060547,1.627500057220459,0.4001200199127197,0.31863999366760254,-0.4943400025367737,551,-0.00341796875,0.29931640625,0.97900390625,552,0.0,0.0,0.0,False,550,14660154687488.0,14660154687488.0,14660154687488.0,14660154687488.0,14660154687488.0,14660154687488.0,14660154687488.0,14660154687488.0,14660154687488.0,14660154687488.0,14660154687488.0,14660154687488.0,14660154687488.0,14660154687488.0,14660154687488.0,14660154687488.0,14660154687488.0,14660154687488.0,1431655765,1431655765,1431655765
-0.28840798139572144,0.003659999929368496,0.9677039980888367,1.6362500190734863,-2.9049999713897705,1.7324999570846558,0.3967600166797638,0.32158002257347107,-0.4985400140285492,559,-0.01318359375,0.294921875,0.970703125,560,0.0,0.0,0.0,False,558,14660154687488.0,14660154687488.0,14660154687488.0,14660154687488.0,14660154687488.0,14660154687488.0,14660154687488.0,14660154687488.0,14660154687488.0,14660154687488.0,14660154687488.0,14660154687488.0,14660154687488.0,14660154687488.0,14660154687488.0,14660154687488.0,14660154687488.0,14660154687488.0,1431655765,1431655765,1431655765
-0.27962398529052734,0.004391999915242195,0.9750239849090576,1.6800000667572021,-2.721250057220459,1.8899999856948853,0.39998000860214233,0.32298001646995544,-0.5005000233650208,569,-0.02880859375,0.2783203125,0.97705078125,570,0.0,0.0,0.0,False,568,14660154687488.0,14660154687488.0,14660154687488.0,14660154687488.0,14660154687488.0,14660154687488.0,14660154687488.0,14660154687488.0,14660154687488.0,14660154687488.0,14660154687488.0,14660154687488.0,14660154687488.0,14660154687488.0,14660154687488.0,14660154687488.0,14660154687488.0,14660154687488.0,1431655765,1431655765,1431655765
-0.2869440019130707,0.0014639999717473984,0.9794159531593323,1.7937500476837158,-2.992500066757202,1.6712499856948853,0.3957799971103668,0.3242399990558624,-0.5009199976921082,577,-0.013671875,0.26123046875,0.98974609375,578,0.0,0.0,0.0,False,576,14660154687488.0,14660154687488.0,14660154687488.0,14660154687488.0,14660154687488.0,14660154687488.0,14660154687488.0,14660154687488.0,14660154687488.0,14660154687488.0,14660154687488.0,14660154687488.0,14660154687488.0,14660154687488.0,14660154687488.0,14660154687488.0,14660154687488.0,14660154687488.0,1431655765,1431655765,1431655765
-0.2862119972705841,-0.0007319999858736992,0.974291980266571,1.662500023841858,-2.913749933242798,1.6362500190734863,0.38934001326560974,0.3256400227546692,-0.4993800222873688,585,0.0,0.2705078125,0.98046875,586,0.0,0.0,0.0,False,584,14660154687488.0,14660154687488.0,14660154687488.0,14660154687488.0,14660154687488.0,14660154687488.0,14660154687488.0,14660154687488.0,14660154687488.0,14660154687488.0,14660154687488.0,14660154687488.0,14660154687488.0,14660154687488.0,14660154687488.0,14660154687488.0,14660154687488.0,14660154687488.0,1431655765,1431655765,1431655765
-0.28255200386047363,-0.0021959999576210976,0.9794159531593323,1.8287500143051147,-2.8350000381469727,1.7412500381469727,0.3955000042915344,0.32284000515937805,-0.4975600242614746,595,-0.00048828125,0.2744140625,0.9814453125,596,0.0,0.0,0.0,False,594,14660154687488.0,14660154687488.0,14660154687488.0,14660154687488.0,14660154687488.0,14660154687488.0,14660154687488.0,14660154687488.0,14660154687488.0,14660154687488.0,14660154687488.0,14660154687488.0,14660154687488.0,14660154687488.0,14660154687488.0,14660154687488.0,14660154687488.0,14660154687488.0,1431655765,1431655765,1431655765
-0.28474798798561096,0.0007319999858736992,0.9757559895515442,1.715000033378601,-2.913749933242798,1.5750000476837158,0.39354002475738525,0.32199999690055847,-0.5070800185203552,603,-0.0166015625,0.26025390625,1.0,604,0.0,0.0,0.0,False,602,14660154687488.0,14660154687488.0,14660154687488.0,14660154687488.0,14660154687488.0,14660154687488.0,14660154687488.0,14660154687488.0,14660154687488.0,14660154687488.0,14660154687488.0,14660154687488.0,14660154687488.0,14660154687488.0,14660154687488.0,14660154687488.0,14660154687488.0,14660154687488.0,1431655765,1431655765,1431655765
-0.27889198064804077,0.003659999929368496,0.9611159563064575,1.9249999523162842,-2.8612499237060547,1.627500057220459,0.39830002188682556,0.3242399990558624,-0.4971400201320648,611,-0.0185546875,0.271484375,0.994140625,612,0.0,0.0,0.0,False,610,14660154687488.0,14660154687488.0,14660154687488.0,14660154687488.0,14660154687488.0,14660154687488.0,14660154687488.0,14660154687488.0,14660154687488.0,14660154687488.0,14660154687488.0,14660154687488.0,14660154687488.0,14660154687488.0,14660154687488.0,14660154687488.0,14660154687488.0,14660154687488.0,1431655765,1431655765,1431655765
-0.28767600655555725,0.0021959999576210976,0.9750239849090576,1.8200000524520874,-2.84375,1.662500023841858,0.4008200168609619,0.32298001646995544,-0.5019000172615051,621,-0.01171875,0.28173828125,0.98388671875,622,0.0,0.0,0.0,False,620,14660154687488.0,14660154687488.0,14660154687488.0,14660154687488.0,14660154687488.0,14660154687488.0,14660154687488.0,14660154687488.0,14660154687488.0,14660154687488.0,14660154687488.0,14660154687488.0,14660154687488.0,14660154687488.0,14660154687488.0,14660154687488.0,14660154687488.0,14660154687488.0,1431655765,1431655765,1431655765
-0.28547999262809753,-0.0007319999858736992,0.974291980266571,1.662500023841858,-2.8787500858306885,1.7675000429153442,0.3970400094985962,0.32396000623703003,-0.500220000743866,629,-0.0126953125,0.275390625,0.974609375,630,0.0,0.0,0.0,False,628,14660154687488.0,14660154687488.0,14660154687488.0,14660154687488.0,14660154687488.0,14660154687488.0,14660154687488.0,14660154687488.0,14660154687488.0,14660154687488.0,14660154687488.0,14660154687488.0,14660154687488.0,14660154687488.0,14660154687488.0,14660154687488.0,14660154687488.0,14660154687488.0,1431655765,1431655765,1431655765
-0.2832840085029602,-0.0021959999576210976,0.974291980266571,1.6887500286102295,-2.8612499237060547,1.9075000286102295,0.3971800208091736,0.3241000175476074,-0.5016199946403503,637,-0.0263671875,0.263671875,0.984375,638,0.0,0.0,0.0,False,636,14660154687488.0,14660154687488.0,14660154687488.0,14660154687488.0,14660154687488.0,14660154687488.0,14660154687488.0,14660154687488.0,14660154687488.0,14660154687488.0,14660154687488.0,14660154687488.0,14660154687488.0,14660154687488.0,14660154687488.0,14660154687488.0,14660154687488.0,14660154687488.0,1431655765,1431655765,1431655765
-0.289139986038208,0.011711999773979187,0.981611967086792,1.6887500286102295,-2.6424999237060547,1.5575000047683716,0.3962000012397766,0.32199999690055847,-0.5014800429344177,647,-0.03125,0.26416015625,0.99658203125,648,0.0,0.0,0.0,False,646,14660154687488.0,14660154687488.0,14660154687488.0,14660154687488.0,14660154687488.0,14660154687488.0,14660154687488.0,14660154687488.0,14660154687488.0,14660154687488.0,14660154687488.0,14660154687488.0,14660154687488.0,14660154687488.0,14660154687488.0,14660154687488.0,14660154687488.0,14660154687488.0,1431655765,1431655765,1431655765
-0.2862119972705841,0.0014639999717473984,0.9750239849090576,1.4787499904632568,-3.0450000762939453,1.662500023841858,0.39480000734329224,0.32214000821113586,-0.5020400285720825,655,-0.04296875,0.244140625,1.0029296875,656,0.0,0.0,0.0,False,654,14660154687488.0,14660154687488.0,14660154687488.0,14660154687488.0,14660154687488.0,14660154687488.0,14660154687488.0,14660154687488.0,14660154687488.0,14660154687488.0,14660154687488.0,14660154687488.0,14660154687488.0,14660154687488.0,14660154687488.0,14660154687488.0,14660154687488.0,14660154687488.0,1431655765,1431655765,1431655765
-0.28474798798561096,-0.0014639999717473984,0.9779520034790039,1.7237499952316284,-3.0450000762939453,1.6887500286102295,0.39326000213623047,0.3217200040817261,-0.5028800368309021,663,-0.048828125,0.23779296875,1.009765625,664,0.0,0.0,0.0,False,662,14660154687488.0,14660154687488.0,14660154687488.0,14660154687488.0,14660154687488.0,14660154687488.0,14660154687488.0,14660154687488.0,14660154687488.0,14660154687488.0,14660154687488.0,14660154687488.0,14660154687488.0,14660154687488.0,14660154687488.0,14660154687488.0,14660154687488.0,14660154687488.0,1431655765,1431655765,1431655765
-0.2832840085029602,0.0007319999858736992,0.9757559895515442,1.7762500047683716,-2.8087499141693115,1.627500057220459,0.39354002475738525,0.32368001341819763,-0.4981200098991394,673,-0.03662109375,0.25732421875,0.99853515625,674,0.0,0.0,0.0,False,672,14660154687488.0,14660154687488.0,14660154687488.0,14660154687488.0,14660154687488.0,14660154687488.0,14660154687488.0,14660154687488.0,14660154687488.0,14660154687488.0,14660154687488.0,14660154687488.0,14660154687488.0,14660154687488.0,14660154687488.0,14660154687488.0,14660154687488.0,14660154687488.0,1431655765,1431655765,1431655765
-0.29060399532318115,0.0021959999576210976,0.9794159531593323,1.9424999952316284,-2.791249990463257,1.6974999904632568,0.3968999981880188,0.3199000060558319,-0.4984000027179718,681,-0.01953125,0.28125,0.99072265625,682,0.0,0.0,0.0,False,680,14660154687488.0,14660154687488.0,14660154687488.0,14660154687488.0,14660154687488.0,14660154687488.0,14660154687488.0,14660154687488.0,14660154687488.0,14660154687488.0,14660154687488.0,14660154687488.0,14660154687488.0,14660154687488.0,14660154687488.0,14660154687488.0,14660154687488.0,14660154687488.0,1431655765,1431655765,1431655765
-0.2862119972705841,0.0014639999717473984,0.9691680073738098,1.7062499523162842,-2.6424999237060547,1.6712499856948853,0.39465999603271484,0.3212999999523163,-0.500220000743866,689,-0.01904296875,0.29150390625,0.98828125,690,0.0,0.0,0.0,False,688,14660154687488.0,14660154687488.0,14660154687488.0,14660154687488.0,14660154687488.0,14660154687488.0,14660154687488.0,14660154687488.0,14660154687488.0,14660154687488.0,14660154687488.0,14660154687488.0,14660154687488.0,14660154687488.0,14660154687488.0,14660154687488.0,14660154687488.0,14660154687488.0,1431655765,1431655765,1431655765
-0.28474798798561096,-0.0029279999434947968,0.9735599756240845,1.881250023841858,-2.721250057220459,1.7412500381469727,0.3910199999809265,0.32256001234054565,-0.5030199885368347,697,-0.03271484375,0.27880859375,1.00341796875,698,0.0,0.0,0.0,False,696,14660154687488.0,14660154687488.0,14660154687488.0,14660154687488.0,14660154687488.0,14660154687488.0,14660154687488.0,14660154687488.0,14660154687488.0,14660154687488.0,14660154687488.0,14660154687488.0,14660154687488.0,14660154687488.0,14660154687488.0,14660154687488.0,14660154687488.0,14660154687488.0,1431655765,1431655765,1431655765
-0.29060399532318115,0.0007319999858736992,0.9786840081214905,1.5750000476837158,-2.7825000286102295,1.7237499952316284,0.3907400071620941,0.3203200101852417,-0.508899986743927,707,-0.0283203125,0.28466796875,0.9970703125,708,0.0,0.0,0.0,False,706,14660154687488.0,14660154687488.0,14660154687488.0,14660154687488.0,14660154687488.0,14660154687488.0,14660154687488.0,14660154687488.0,14660154687488.0,14660154687488.0,14660154687488.0,14660154687488.0,14660154687488.0,14660154687488.0,14660154687488.0,14660154687488.0,14660154687488.0,14660154687488.0,1431655765,1431655765,1431655765
-0.28181999921798706,0.007319999858736992,0.9779520034790039,1.7412500381469727,-3.018749952316284,1.7412500381469727,0.39438000321388245,0.32284000515937805,-0.5070800185203552,715,-0.0234375,0.28955078125,0.978515625,716,0.0,0.0,0.0,False,714,14660154687488.0,14660154687488.0,14660154687488.0,14660154687488.0,14660154687488.0,14660154687488.0,14660154687488.0,14660154687488.0,14660154687488.0,14660154687488.0,14660154687488.0,14660154687488.0,14660154687488.0,14660154687488.0,14660154687488.0,14660154687488.0,14660154687488.0,14660154687488.0,1431655765,1431655765,1431655765
-0.28840798139572144,0.0,0.974291980266571,1.7587499618530273,-2.773750066757202,1.618749976158142,0.3959200084209442,0.32186001539230347,-0.5072200298309326,723,-0.0126953125,0.29541015625,0.9970703125,724,0.0,0.0,0.0,False,722,14660154687488.0,14660154687488.0,14660154687488.0,14660154687488.0,14660154687488.0,14660154687488.0,14660154687488.0,14660154687488.0,14660154687488.0,14660154687488.0,14660154687488.0,14660154687488.0,14660154687488.0,14660154687488.0,14660154687488.0,14660154687488.0,14660154687488.0,14660154687488.0,1431655765,1431655765,1431655765
-0.2803559899330139,0.0,0.9750239849090576,1.6449999809265137,-2.9049999713897705,1.7237499952316284,0.39508000016212463,0.3248000144958496,-0.5060999989509583,733,-0.013671875,0.27978515625,0.9970703125,734,0.0,0.0,0.0,False,732,14660154687488.0,14660154687488.0,14660154687488.0,14660154687488.0,14660154687488.0,14660154687488.0,14660154687488.0,14660154687488.0,14660154687488.0,14660154687488.0,14660154687488.0,14660154687488.0,14660154687488.0,14660154687488.0,14660154687488.0,14660154687488.0,14660154687488.0,14660154687488.0,1431655765,1431655765,1431655765
-0.2810879945755005,0.0058559998869895935,0.9728279709815979,1.5137499570846558,-3.0274999141693115,1.566249966621399,0.395220011472702,0.3245200216770172,-0.5083400011062622,741,-0.017578125,0.27001953125,1.005859375,742,0.0,0.0,0.0,False,740,14660154687488.0,14660154687488.0,14660154687488.0,14660154687488.0,14660154687488.0,14660154687488.0,14660154687488.0,14660154687488.0,14660154687488.0,14660154687488.0,14660154687488.0,14660154687488.0,14660154687488.0,14660154687488.0,14660154687488.0,14660154687488.0,14660154687488.0,14660154687488.0,1431655765,1431655765,1431655765
-0.289139986038208,0.0007319999858736992,0.974291980266571,1.408750057220459,-2.992500066757202,1.7062499523162842,0.3918600082397461,0.3199000060558319,-0.5016199946403503,749,-0.0146484375,0.275390625,1.00146484375,750,0.0,0.0,0.0,False,748,14660154687488.0,14660154687488.0,14660154687488.0,14660154687488.0,14660154687488.0,14660154687488.0,14660154687488.0,14660154687488.0,14660154687488.0,14660154687488.0,14660154687488.0,14660154687488.0,14660154687488.0,14660154687488.0,14660154687488.0,14660154687488.0,14660154687488.0,14660154687488.0,1431655765,1431655765,1431655765
-0.28181999921798706,-0.0007319999858736992,0.9640439748764038,1.75,-2.8350000381469727,1.784999966621399,0.39871999621391296,0.3199000060558319,-0.5052599906921387,759,-0.00830078125,0.28857421875,0.97412109375,760,0.0,0.0,0.0,False,758,14660154687488.0,14660154687488.0,14660154687488.0,14660154687488.0,14660154687488.0,14660154687488.0,14660154687488.0,14660154687488.0,14660154687488.0,14660154687488.0,14660154687488.0,14660154687488.0,14660154687488.0,14660154687488.0,14660154687488.0,14660154687488.0,14660154687488.0,14660154687488.0,1431655765,1431655765,1431655765
-0.29280000925064087,-0.0029279999434947968,0.9808799624443054,1.7412500381469727,-2.84375,1.566249966621399,0.38989999890327454,0.31766000390052795,-0.506380021572113,767,-0.00341796875,0.29638671875,0.9775390625,768,0.0,0.0,0.0,False,766,14660154687488.0,14660154687488.0,14660154687488.0,14660154687488.0,14660154687488.0,14660154687488.0,14660154687488.0,14660154687488.0,14660154687488.0,14660154687488.0,14660154687488.0,14660154687488.0,14660154687488.0,14660154687488.0,14660154687488.0,14660154687488.0,14660154687488.0,14660154687488.0,1431655765,1431655765,1431655765
-0.2862119972705841,-0.0014639999717473984,0.9698999524116516,1.5750000476837158,-2.8350000381469727,1.5399999618530273,0.3910199999809265,0.3212999999523163,-0.5054000020027161,775,-0.01220703125,0.2919921875,0.974609375,776,0.0,0.0,0.0,False,774,14660154687488.0,14660154687488.0,14660154687488.0,14660154687488.0,14660154687488.0,14660154687488.0,14660154687488.0,14660154687488.0,14660154687488.0,14660154687488.0,14660154687488.0,14660154687488.0,14660154687488.0,14660154687488.0,14660154687488.0,14660154687488.0,14660154687488.0,14660154687488.0,1431655765,1431655765,1431655765
-0.29353198409080505,0.0007319999858736992,0.9735599756240845,1.8637499809265137,-2.913749933242798,1.5137499570846558,0.39424002170562744,0.3246600031852722,-0.5094600319862366,785,-0.01025390625,0.291015625,0.9619140625,786,0.0,0.0,0.0,False,784,14660154687488.0,14660154687488.0,14660154687488.0,14660154687488.0,14660154687488.0,14660154687488.0,14660154687488.0,14660154687488.0,14660154687488.0,14660154687488.0,14660154687488.0,14660154687488.0,14660154687488.0,14660154687488.0,14660154687488.0,14660154687488.0,14660154687488.0,14660154687488.0,1431655765,1431655765,1431655765
-0.2810879945755005,-0.004391999915242195,0.9698999524116516,1.7762500047683716,-2.9049999713897705,1.96875,0.3913000226020813,0.32340002059936523,-0.5016199946403503,793,-0.01123046875,0.275390625,0.97900390625,794,0.0,0.0,0.0,False,792,14660154687488.0,14660154687488.0,14660154687488.0,14660154687488.0,14660154687488.0,14660154687488.0,14660154687488.0,14660154687488.0,14660154687488.0,14660154687488.0,14660154687488.0,14660154687488.0,14660154687488.0,14660154687488.0,14660154687488.0,14660154687488.0,14660154687488.0,14660154687488.0,1431655765,1431655765,1431655765
-0.28547999262809753,0.004391999915242195,0.9757559895515442,1.8287500143051147,-2.7125000953674316,1.6537500619888306,0.39326000213623047,0.32368001341819763,-0.5080600380897522,801,-0.0048828125,0.28125,0.97802734375,802,0.0,0.0,0.0,False,800,14660154687488.0,14660154687488.0,14660154687488.0,14660154687488.0,14660154687488.0,14660154687488.0,14660154687488.0,14660154687488.0,14660154687488.0,14660154687488.0,14660154687488.0,14660154687488.0,14660154687488.0,14660154687488.0,14660154687488.0,14660154687488.0,14660154687488.0,14660154687488.0,1431655765,1431655765,1431655765
-0.28255200386047363,0.0,0.9808799624443054,2.0037500858306885,-2.870000123977661,1.75,0.39410001039505005,0.3200400173664093,-0.4992400109767914,811,-0.017578125,0.26318359375,0.99072265625,812,0.0,0.0,0.0,False,810,14660154687488.0,14660154687488.0,14660154687488.0,14660154687488.0,14660154687488.0,14660154687488.0,14660154687488.0,14660154687488.0,14660154687488.0,14660154687488.0,14660154687488.0,14660154687488.0,14660154687488.0,14660154687488.0,14660154687488.0,14660154687488.0,14660154687488.0,14660154687488.0,1431655765,1431655765,1431655765
-0.28181999921798706,-0.0029279999434947968,0.9589200019836426,1.7237499952316284,-2.8612499237060547,1.662500023841858,0.3913000226020813,0.31752002239227295,-0.5048400163650513,819,-0.0361328125,0.24658203125,1.00341796875,820,0.0,0.0,0.0,False,818,14660154687488.0,14660154687488.0,14660154687488.0,14660154687488.0,14660154687488.0,14660154687488.0,14660154687488.0,14660154687488.0,14660154687488.0,14660154687488.0,14660154687488.0,14660154687488.0,14660154687488.0,14660154687488.0,14660154687488.0,14660154687488.0,14660154687488.0,14660154687488.0,1431655765,1431655765,1431655765
-0.28474798798561096,0.0007319999858736992,0.9794159531593323,1.6012500524520874,-2.7825000286102295,1.6974999904632568,0.3917199969291687,0.3246600031852722,-0.5023199915885925,827,-0.0302734375,0.25244140625,0.99755859375,828,0.0,0.0,0.0,False,826,14660154687488.0,14660154687488.0,14660154687488.0,14660154687488.0,14660154687488.0,14660154687488.0,14660154687488.0,14660154687488.0,14660154687488.0,14660154687488.0,14660154687488.0,14660154687488.0,14660154687488.0,14660154687488.0,14660154687488.0,14660154687488.0,14660154687488.0,14660154687488.0,1431655765,1431655765,1431655765
-0.2869440019130707,0.005123999901115894,0.9750239849090576,1.496250033378601,-2.9487500190734863,1.6974999904632568,0.3928399980068207,0.32368001341819763,-0.5030199885368347,835,-0.0361328125,0.26318359375,0.9912109375,836,0.0,0.0,0.0,False,834,14660154687488.0,14660154687488.0,14660154687488.0,14660154687488.0,14660154687488.0,14660154687488.0,14660154687488.0,14660154687488.0,14660154687488.0,14660154687488.0,14660154687488.0,14660154687488.0,14660154687488.0,14660154687488.0,14660154687488.0,14660154687488.0,14660154687488.0,14660154687488.0,1431655765,1431655765,1431655765
-0.28547999262809753,-0.1844639927148819,0.9684360027313232,1.9424999952316284,-2.9312500953674316,1.5487500429153442,0.39438000321388245,0.3200400173664093,-0.49658000469207764,845,-0.03125,0.25390625,1.001953125,846,0.0,0.0,0.0,False,844,14660154687488.0,14660154687488.0,14660154687488.0,14660154687488.0,14660154687488.0,14660154687488.0,14660154687488.0,14660154687488.0,14660154687488.0,14660154687488.0,14660154687488.0,14660154687488.0,14660154687488.0,14660154687488.0,14660154687488.0,14660154687488.0,14660154687488.0,14660154687488.0,1431655765,1431655765,1431655765
-0.28840798139572144,0.0021959999576210976,0.9772199988365173,1.9162499904632568,-2.8350000381469727,1.7937500476837158,0.39508000016212463,0.3248000144958496,-0.4977000057697296,853,-0.01025390625,0.2783203125,0.98876953125,854,0.0,0.0,0.0,False,852,14660154687488.0,14660154687488.0,14660154687488.0,14660154687488.0,14660154687488.0,14660154687488.0,14660154687488.0,14660154687488.0,14660154687488.0,14660154687488.0,14660154687488.0,14660154687488.0,14660154687488.0,14660154687488.0,14660154687488.0,14660154687488.0,14660154687488.0,14660154687488.0,1431655765,1431655765,1431655765
-0.29060399532318115,-0.0014639999717473984,0.9786840081214905,1.496250033378601,-2.7562499046325684,1.6449999809265137,0.39452001452445984,0.3245200216770172,-0.5014800429344177,861,-0.00341796875,0.294921875,0.9814453125,862,0.0,0.0,0.0,False,860,14660154687488.0,14660154687488.0,14660154687488.0,14660154687488.0,14660154687488.0,14660154687488.0,14660154687488.0,14660154687488.0,14660154687488.0,14660154687488.0,14660154687488.0,14660154687488.0,14660154687488.0,14660154687488.0,14660154687488.0,14660154687488.0,14660154687488.0,14660154687488.0,1431655765,1431655765,1431655765
-0.28474798798561096,0.0014639999717473984,0.9698999524116516,1.6887500286102295,-3.036250114440918,1.75,0.39340001344680786,0.32829999923706055,-0.4977000057697296,871,-0.0341796875,0.26513671875,1.00341796875,872,0.0,0.0,0.0,False,870,14660154687488.0,14660154687488.0,14660154687488.0,14660154687488.0,14660154687488.0,14660154687488.0,14660154687488.0,14660154687488.0,14660154687488.0,14660154687488.0,14660154687488.0,14660154687488.0,14660154687488.0,14660154687488.0,14660154687488.0,14660154687488.0,14660154687488.0,14660154687488.0,1431655765,1431655765,1431655765
-0.2869440019130707,0.0007319999858736992,0.974291980266571,1.5487500429153442,-2.7387499809265137,1.784999966621399,0.3955000042915344,0.32298001646995544,-0.5000799894332886,879,-0.04541015625,0.25341796875,1.009765625,880,0.0,0.0,0.0,False,878,14660154687488.0,14660154687488.0,14660154687488.0,14660154687488.0,14660154687488.0,14660154687488.0,14660154687488.0,14660154687488.0,14660154687488.0,14660154687488.0,14660154687488.0,14660154687488.0,14660154687488.0,14660154687488.0,14660154687488.0,14660154687488.0,14660154687488.0,14660154687488.0,1431655765,1431655765,1431655765
-0.2898719906806946,-0.0007319999858736992,0.9720959663391113,1.7062499523162842,-2.546250104904175,1.6449999809265137,0.3921400010585785,0.3241000175476074,-0.4984000027179718,887,-0.03857421875,0.27783203125,1.00146484375,888,0.0,0.0,0.0,False,886,14660154687488.0,14660154687488.0,14660154687488.0,14660154687488.0,14660154687488.0,14660154687488.0,14660154687488.0,14660154687488.0,14660154687488.0,14660154687488.0,14660154687488.0,14660154687488.0,14660154687488.0,14660154687488.0,14660154687488.0,14660154687488.0,14660154687488.0,14660154687488.0,1431655765,1431655765,1431655765
-0.28547999262809753,0.0021959999576210976,0.9903959631919861,1.837499976158142,-3.036250114440918,1.5399999618530273,0.39788001775741577,0.3217200040817261,-0.5000799894332886,897,-0.02880859375,0.28466796875,1.00146484375,898,0.0,0.0,0.0,False,896,14660154687488.0,14660154687488.0,14660154687488.0,14660154687488.0,14660154687488.0,14660154687488.0,14660154687488.0,14660154687488.0,14660154687488.0,14660154687488.0,14660154687488.0,14660154687488.0,14660154687488.0,14660154687488.0,14660154687488.0,14660154687488.0,14660154687488.0,14660154687488.0,1431655765,1431655765,1431655765
-0.27962398529052734,0.0021959999576210976,0.9677039980888367,1.715000033378601,-2.7562499046325684,1.5837500095367432,0.39368000626564026,0.32704001665115356,-0.5005000233650208,905,-0.0185546875,0.2841796875,0.9736328125,906,0.0,0.0,0.0,False,904,14660154687488.0,14660154687488.0,14660154687488.0,14660154687488.0,14660154687488.0,14660154687488.0,14660154687488.0,14660154687488.0,14660154687488.0,14660154687488.0,14660154687488.0,14660154687488.0,14660154687488.0,14660154687488.0,14660154687488.0,14660154687488.0,14660154687488.0,14660154687488.0,1431655765,1431655765,1431655765
-0.28767600655555725,-0.0021959999576210976,0.9764879941940308,1.618749976158142,-2.747499942779541,1.8025000095367432,0.3960600197315216,0.3256400227546692,-0.5049800276756287,913,-0.005859375,0.296875,0.95166015625,914,0.0,0.0,0.0,False,912,14660154687488.0,14660154687488.0,14660154687488.0,14660154687488.0,14660154687488.0,14660154687488.0,14660154687488.0,14660154687488.0,14660154687488.0,14660154687488.0,14660154687488.0,14660154687488.0,14660154687488.0,14660154687488.0,14660154687488.0,14660154687488.0,14660154687488.0,14660154687488.0,1431655765,1431655765,1431655765
-0.2832840085029602,0.0007319999858736992,0.9772199988365173,1.75,-2.9749999046325684,1.6974999904632568,0.3925600051879883,0.3200400173664093,-0.499099999666214,924,0.001953125,0.2958984375,0.96240234375,925,0.0,0.0,0.0,False,923,14660154687488.0,14660154687488.0,14660154687488.0,14660154687488.0,14660154687488.0,14660154687488.0,14660154687488.0,14660154687488.0,14660154687488.0,14660154687488.0,14660154687488.0,14660154687488.0,14660154687488.0,14660154687488.0,14660154687488.0,14660154687488.0,14660154687488.0,14660154687488.0,1431655765,1431655765,1431655765
-0.28255200386047363,-0.0014639999717473984,0.9691680073738098,1.8025000095367432,-2.8087499141693115,1.7237499952316284,0.3921400010585785,0.3200400173664093,-0.498960018157959,932,-0.00244140625,0.28857421875,0.97509765625,933,0.0,0.0,0.0,False,931,14660154687488.0,14660154687488.0,14660154687488.0,14660154687488.0,14660154687488.0,14660154687488.0,14660154687488.0,14660154687488.0,14660154687488.0,14660154687488.0,14660154687488.0,14660154687488.0,14660154687488.0,14660154687488.0,14660154687488.0,14660154687488.0,14660154687488.0,14660154687488.0,1431655765,1431655765,1431655765
-0.28547999262809753,0.004391999915242195,0.9728279709815979,1.7324999570846558,-2.8612499237060547,1.7062499523162842,0.3957799971103668,0.32311999797821045,-0.5019000172615051,940,-0.02099609375,0.30517578125,0.9931640625,941,0.0,0.0,0.0,False,939,14660154687488.0,14660154687488.0,14660154687488.0,14660154687488.0,14660154687488.0,14660154687488.0,14660154687488.0,14660154687488.0,14660154687488.0,14660154687488.0,14660154687488.0,14660154687488.0,14660154687488.0,14660154687488.0,14660154687488.0,14660154687488.0,14660154687488.0,14660154687488.0,1431655765,1431655765,1431655765
-0.28767600655555725,-0.0014639999717473984,0.9706319570541382,1.9424999952316284,-2.896250009536743,1.7237499952316284,0.3957799971103668,0.32256001234054565,-0.5010600090026855,950,-0.01513671875,0.32177734375,1.0009765625,951,0.0,0.0,0.0,False,949,14660154687488.0,14660154687488.0,14660154687488.0,14660154687488.0,14660154687488.0,14660154687488.0,14660154687488.0,14660154687488.0,14660154687488.0,14660154687488.0,14660154687488.0,14660154687488.0,14660154687488.0,14660154687488.0,14660154687488.0,14660154687488.0,14660154687488.0,14660154687488.0,1431655765,1431655765,1431655765
-0.28181999921798706,-0.0007319999858736992,0.9713639616966248,1.6974999904632568,-2.703749895095825,1.6712499856948853,0.39983999729156494,0.32326000928878784,-0.5048400163650513,958,-0.0068359375,0.3037109375,0.99609375,959,0.0,0.0,0.0,False,957,14660154687488.0,14660154687488.0,14660154687488.0,14660154687488.0,14660154687488.0,14660154687488.0,14660154687488.0,14660154687488.0,14660154687488.0,14660154687488.0,14660154687488.0,14660154687488.0,14660154687488.0,14660154687488.0,14660154687488.0,14660154687488.0,14660154687488.0,14660154687488.0,1431655765,1431655765,1431655765
-0.28474798798561096,0.0007319999858736992,0.9764879941940308,1.6449999809265137,-2.6075000762939453,1.6974999904632568,0.3955000042915344,0.3210200071334839,-0.497840017080307,966,0.00048828125,0.30810546875,0.9814453125,967,0.0,0.0,0.0,False,965,14660154687488.0,14660154687488.0,14660154687488.0,14660154687488.0,14660154687488.0,14660154687488.0,14660154687488.0,14660154687488.0,14660154687488.0,14660154687488.0,14660154687488.0,14660154687488.0,14660154687488.0,14660154687488.0,14660154687488.0,14660154687488.0,14660154687488.0,14660154687488.0,1431655765,1431655765,1431655765
-0.28474798798561096,0.006587999872863293,0.965507984161377,1.9424999952316284,-2.8787500858306885,1.6012500524520874,0.396340012550354,0.32340002059936523,-0.5037199854850769,974,-0.00244140625,0.3037109375,0.98388671875,975,0.0,0.0,0.0,False,973,14660154687488.0,14660154687488.0,14660154687488.0,14660154687488.0,14660154687488.0,14660154687488.0,14660154687488.0,14660154687488.0,14660154687488.0,14660154687488.0,14660154687488.0,14660154687488.0,14660154687488.0,14660154687488.0,14660154687488.0,14660154687488.0,14660154687488.0,14660154687488.0,1431655765,1431655765,1431655765
-0.2840159833431244,0.0,0.9728279709815979,1.7587499618530273,-2.703749895095825,1.784999966621399,0.3960600197315216,0.3211600184440613,-0.5042800307273865,984,-0.00048828125,0.28564453125,1.00537109375,985,0.0,0.0,0.0,False,983,14660154687488.0,14660154687488.0,14660154687488.0,14660154687488.0,14660154687488.0,14660154687488.0,14660154687488.0,14660154687488.0,14660154687488.0,14660154687488.0,14660154687488.0,14660154687488.0,14660154687488.0,14660154687488.0,14660154687488.0,14660154687488.0,14660154687488.0,14660154687488.0,1431655765,1431655765,1431655765
-0.2810879945755005,0.0014639999717473984,0.9720959663391113,1.662500023841858,-2.887500047683716,1.6537500619888306,0.3924200236797333,0.3243800103664398,-0.5033000111579895,992,-0.01318359375,0.294921875,0.9951171875,993,0.0,0.0,0.0,False,991,14660154687488.0,14660154687488.0,14660154687488.0,14660154687488.0,14660154687488.0,14660154687488.0,14660154687488.0,14660154687488.0,14660154687488.0,14660154687488.0,14660154687488.0,14660154687488.0,14660154687488.0,14660154687488.0,14660154687488.0,14660154687488.0,14660154687488.0,14660154687488.0,1431655765,1431655765,1431655765
-0.28840798139572144,0.0021959999576210976,0.9786840081214905,1.6362500190734863,-2.7125000953674316,1.618749976158142,0.3959200084209442,0.3204600214958191,-0.5052599906921387,1000,-0.02490234375,0.29638671875,0.9873046875,1001,0.0,0.0,0.0,False,999,14660154687488.0,14660154687488.0,14660154687488.0,14660154687488.0,14660154687488.0,14660154687488.0,14660154687488.0,14660154687488.0,14660154687488.0,14660154687488.0,14660154687488.0,14660154687488.0,14660154687488.0,14660154687488.0,14660154687488.0,14660154687488.0,14660154687488.0,14660154687488.0,1431655765,1431655765,1431655765
-0.2840159833431244,-0.0014639999717473984,0.9757559895515442,1.662500023841858,-2.6337499618530273,1.4524999856948853,0.3928399980068207,0.3257800042629242,-0.508620023727417,1010,-0.02880859375,0.27587890625,1.00341796875,1011,0.0,0.0,0.0,False,1009,14660154687488.0,14660154687488.0,14660154687488.0,14660154687488.0,14660154687488.0,14660154687488.0,14660154687488.0,14660154687488.0,14660154687488.0,14660154687488.0,14660154687488.0,14660154687488.0,14660154687488.0,14660154687488.0,14660154687488.0,14660154687488.0,14660154687488.0,14660154687488.0,1431655765,1431655765,1431655765
-0.27962398529052734,-0.003659999929368496,0.9764879941940308,1.75,-3.106250047683716,1.75,0.39326000213623047,0.3204600214958191,-0.5048400163650513,1018,-0.02197265625,0.28369140625,1.0029296875,1019,0.0,0.0,0.0,False,1017,14660154687488.0,14660154687488.0,14660154687488.0,14660154687488.0,14660154687488.0,14660154687488.0,14660154687488.0,14660154687488.0,14660154687488.0,14660154687488.0,14660154687488.0,14660154687488.0,14660154687488.0,14660154687488.0,14660154687488.0,14660154687488.0,14660154687488.0,14660154687488.0,1431655765,1431655765,1431655765
-0.2781600058078766,-0.0007319999858736992,0.9720959663391113,1.9424999952316284,-2.694999933242798,1.8025000095367432,0.3959200084209442,0.31863999366760254,-0.5037199854850769,1026,-0.0185546875,0.29833984375,0.99560546875,1027,0.0,0.0,0.0,False,1025,14660154687488.0,14660154687488.0,14660154687488.0,14660154687488.0,14660154687488.0,14660154687488.0,14660154687488.0,14660154687488.0,14660154687488.0,14660154687488.0,14660154687488.0,14660154687488.0,14660154687488.0,14660154687488.0,14660154687488.0,14660154687488.0,14660154687488.0,14660154687488.0,1431655765,1431655765,1431655765
-0.27376800775527954,0.0,0.9713639616966248,1.6887500286102295,-2.870000123977661,1.662500023841858,0.38962000608444214,0.32298001646995544,-0.5090399980545044,1037,-0.03173828125,0.27490234375,1.0048828125,1038,0.0,0.0,0.0,False,1036,14660154687488.0,14660154687488.0,14660154687488.0,14660154687488.0,14660154687488.0,14660154687488.0,14660154687488.0,14660154687488.0,14660154687488.0,14660154687488.0,14660154687488.0,14660154687488.0,14660154687488.0,14660154687488.0,14660154687488.0,14660154687488.0,14660154687488.0,14660154687488.0,1431655765,1431655765,1431655765
-0.29060399532318115,0.004391999915242195,0.9691680073738098,1.7237499952316284,-2.966249942779541,1.662500023841858,0.3922800123691559,0.3259200155735016,-0.5024600028991699,1045,-0.03076171875,0.26513671875,1.01513671875,1046,0.0,0.0,0.0,False,1044,14660154687488.0,14660154687488.0,14660154687488.0,14660154687488.0,14660154687488.0,14660154687488.0,14660154687488.0,14660154687488.0,14660154687488.0,14660154687488.0,14660154687488.0,14660154687488.0,14660154687488.0,14660154687488.0,14660154687488.0,14660154687488.0,14660154687488.0,14660154687488.0,1431655765,1431655765,1431655765
-0.2840159833431244,-0.0014639999717473984,0.9794159531593323,1.784999966621399,-2.799999952316284,1.6800000667572021,0.39508000016212463,0.3243800103664398,-0.5040000081062317,1053,-0.021484375,0.271484375,1.001953125,1054,0.0,0.0,0.0,False,1052,14660154687488.0,14660154687488.0,14660154687488.0,14660154687488.0,14660154687488.0,14660154687488.0,14660154687488.0,14660154687488.0,14660154687488.0,14660154687488.0,14660154687488.0,14660154687488.0,14660154687488.0,14660154687488.0,14660154687488.0,14660154687488.0,14660154687488.0,14660154687488.0,1431655765,1431655765,1431655765
-0.27669599652290344,0.006587999872863293,0.9706319570541382,1.6712499856948853,-2.8262500762939453,1.6712499856948853,0.39508000016212463,0.32396000623703003,-0.5031599998474121,1063,-0.0224609375,0.2783203125,0.9990234375,1064,0.0,0.0,0.0,False,1062,14660154687488.0,14660154687488.0,14660154687488.0,14660154687488.0,14660154687488.0,14660154687488.0,14660154687488.0,14660154687488.0,14660154687488.0,14660154687488.0,14660154687488.0,14660154687488.0,14660154687488.0,14660154687488.0,14660154687488.0,14660154687488.0,14660154687488.0,14660154687488.0,1431655765,1431655765,1431655765
-0.2862119972705841,0.007319999858736992,0.9706319570541382,1.7412500381469727,-2.7562499046325684,1.9075000286102295,0.3967600166797638,0.32199999690055847,-0.4986800253391266,1071,-0.01806640625,0.2626953125,1.001953125,1072,0.0,0.0,0.0,False,1070,14660154687488.0,14660154687488.0,14660154687488.0,14660154687488.0,14660154687488.0,14660154687488.0,14660154687488.0,14660154687488.0,14660154687488.0,14660154687488.0,14660154687488.0,14660154687488.0,14660154687488.0,14660154687488.0,14660154687488.0,14660154687488.0,14660154687488.0,14660154687488.0,1431655765,1431655765,1431655765
-0.2862119972705841,0.0021959999576210976,0.9662399888038635,1.9424999952316284,-2.765000104904175,1.75,0.3970400094985962,0.32269999384880066,-0.5045599937438965,1079,-0.01025390625,0.2626953125,0.998046875,1080,0.0,0.0,0.0,False,1078,14660154687488.0,14660154687488.0,14660154687488.0,14660154687488.0,14660154687488.0,14660154687488.0,14660154687488.0,14660154687488.0,14660154687488.0,14660154687488.0,14660154687488.0,14660154687488.0,14660154687488.0,14660154687488.0,14660154687488.0,14660154687488.0,14660154687488.0,14660154687488.0,1431655765,1431655765,1431655765
-0.28255200386047363,0.0021959999576210976,0.9779520034790039,1.8637499809265137,-2.694999933242798,1.618749976158142,0.39480000734329224,0.3217200040817261,-0.5052599906921387,1089,-0.01025390625,0.27490234375,0.9892578125,1090,0.0,0.0,0.0,False,1088,14660154687488.0,14660154687488.0,14660154687488.0,14660154687488.0,14660154687488.0,14660154687488.0,14660154687488.0,14660154687488.0,14660154687488.0,14660154687488.0,14660154687488.0,14660154687488.0,14660154687488.0,14660154687488.0,14660154687488.0,14660154687488.0,14660154687488.0,14660154687488.0,1431655765,1431655765,1431655765
-0.2840159833431244,-0.0007319999858736992,0.9720959663391113,1.9249999523162842,-2.9487500190734863,1.6974999904632568,0.3911600112915039,0.32704001665115356,-0.5045599937438965,1097,-0.0107421875,0.28662109375,0.98095703125,1098,0.0,0.0,0.0,False,1096,14660154687488.0,14660154687488.0,14660154687488.0,14660154687488.0,14660154687488.0,14660154687488.0,14660154687488.0,14660154687488.0,14660154687488.0,14660154687488.0,14660154687488.0,14660154687488.0,14660154687488.0,14660154687488.0,14660154687488.0,14660154687488.0,14660154687488.0,14660154687488.0,1431655765,1431655765,1431655765
-0.28547999262809753,0.0014639999717473984,0.965507984161377,1.627500057220459,-2.6862499713897705,1.5049999952316284,0.3924200236797333,0.3212999999523163,-0.5034400224685669,1105,-0.033203125,0.2724609375,0.9794921875,1106,0.0,0.0,0.0,False,1104,14660154687488.0,14660154687488.0,14660154687488.0,14660154687488.0,14660154687488.0,14660154687488.0,14660154687488.0,14660154687488.0,14660154687488.0,14660154687488.0,14660154687488.0,14660154687488.0,14660154687488.0,14660154687488.0,14660154687488.0,14660154687488.0,14660154687488.0,14660154687488.0,1431655765,1431655765,1431655765
-0.2898719906806946,0.0,0.9764879941940308,1.6887500286102295,-2.625,1.6362500190734863,0.39508000016212463,0.32368001341819763,-0.49980002641677856,1113,-0.02978515625,0.26953125,0.97216796875,1114,0.0,0.0,0.0,False,1112,14660154687488.0,14660154687488.0,14660154687488.0,14660154687488.0,14660154687488.0,14660154687488.0,14660154687488.0,14660154687488.0,14660154687488.0,14660154687488.0,14660154687488.0,14660154687488.0,14660154687488.0,14660154687488.0,14660154687488.0,14660154687488.0,14660154687488.0,14660154687488.0,1431655765,1431655765,1431655765
-0.2752319872379303,0.0058559998869895935,0.9830759763717651,1.8725000619888306,-2.8087499141693115,1.6800000667572021,0.39298000931739807,0.31836000084877014,-0.5031599998474121,1123,-0.0341796875,0.2724609375,0.98388671875,1124,0.0,0.0,0.0,False,1122,14660154687488.0,14660154687488.0,14660154687488.0,14660154687488.0,14660154687488.0,14660154687488.0,14660154687488.0,14660154687488.0,14660154687488.0,14660154687488.0,14660154687488.0,14660154687488.0,14660154687488.0,14660154687488.0,14660154687488.0,14660154687488.0,14660154687488.0,14660154687488.0,1431655765,1431655765,1431655765
-0.2949959933757782,-0.003659999929368496,0.9764879941940308,1.6800000667572021,-2.7825000286102295,1.715000033378601,0.39438000321388245,0.32199999690055847,-0.5062400102615356,1131,-0.04248046875,0.267578125,0.99658203125,1132,0.0,0.0,0.0,False,1130,14660154687488.0,14660154687488.0,14660154687488.0,14660154687488.0,14660154687488.0,14660154687488.0,14660154687488.0,14660154687488.0,14660154687488.0,14660154687488.0,14660154687488.0,14660154687488.0,14660154687488.0,14660154687488.0,14660154687488.0,14660154687488.0,14660154687488.0,14660154687488.0,1431655765,1431655765,1431655765
-0.2832840085029602,0.0,0.9698999524116516,1.627500057220459,-2.9312500953674316,1.715000033378601,0.39788001775741577,0.3197599947452545,-0.5101600289344788,1139,-0.03857421875,0.2705078125,0.9990234375,1140,0.0,0.0,0.0,False,1138,14660154687488.0,14660154687488.0,14660154687488.0,14660154687488.0,14660154687488.0,14660154687488.0,14660154687488.0,14660154687488.0,14660154687488.0,14660154687488.0,14660154687488.0,14660154687488.0,14660154687488.0,14660154687488.0,14660154687488.0,14660154687488.0,14660154687488.0,14660154687488.0,1431655765,1431655765,1431655765
-0.28840798139572144,0.0,0.9889319539070129,1.7237499952316284,-2.6862499713897705,1.5137499570846558,0.39480000734329224,0.3246600031852722,-0.5072200298309326,1149,-0.02197265625,0.28173828125,0.98681640625,1150,0.0,0.0,0.0,False,1148,14660154687488.0,14660154687488.0,14660154687488.0,14660154687488.0,14660154687488.0,14660154687488.0,14660154687488.0,14660154687488.0,14660154687488.0,14660154687488.0,14660154687488.0,14660154687488.0,14660154687488.0,14660154687488.0,14660154687488.0,14660154687488.0,14660154687488.0,14660154687488.0,1431655765,1431655765,1431655765
-0.2898719906806946,0.0014639999717473984,0.9764879941940308,1.7675000429153442,-2.7300000190734863,1.7324999570846558,0.39452001452445984,0.3199000060558319,-0.5145000219345093,1157,-0.0009765625,0.2978515625,0.982421875,1158,0.0,0.0,0.0,False,1156,14660154687488.0,14660154687488.0,14660154687488.0,14660154687488.0,14660154687488.0,14660154687488.0,14660154687488.0,14660154687488.0,14660154687488.0,14660154687488.0,14660154687488.0,14660154687488.0,14660154687488.0,14660154687488.0,14660154687488.0,14660154687488.0,14660154687488.0,14660154687488.0,1431655765,1431655765,1431655765
-0.2840159833431244,-0.0029279999434947968,0.9757559895515442,1.7587499618530273,-2.799999952316284,1.7062499523162842,0.3966200053691864,0.3249399960041046,-0.5041400194168091,1165,0.009765625,0.3056640625,0.98291015625,1166,0.0,0.0,0.0,False,1164,14660154687488.0,14660154687488.0,14660154687488.0,14660154687488.0,14660154687488.0,14660154687488.0,14660154687488.0,14660154687488.0,14660154687488.0,14660154687488.0,14660154687488.0,14660154687488.0,14660154687488.0,14660154687488.0,14660154687488.0,14660154687488.0,14660154687488.0,14660154687488.0,1431655765,1431655765,1431655765
-0.28547999262809753,0.0029279999434947968,0.9786840081214905,1.5049999952316284,-2.799999952316284,1.618749976158142,0.3959200084209442,0.31850001215934753,-0.5070800185203552,1175,-0.00146484375,0.30224609375,0.98974609375,1176,0.0,0.0,0.0,False,1174,14660154687488.0,14660154687488.0,14660154687488.0,14660154687488.0,14660154687488.0,14660154687488.0,14660154687488.0,14660154687488.0,14660154687488.0,14660154687488.0,14660154687488.0,14660154687488.0,14660154687488.0,14660154687488.0,14660154687488.0,14660154687488.0,14660154687488.0,14660154687488.0,1431655765,1431655765,1431655765
-0.2781600058078766,0.006587999872863293,0.9757559895515442,1.4787499904632568,-2.765000104904175,1.5399999618530273,0.3908800184726715,0.3255000114440918,-0.5083400011062622,1183,-0.0224609375,0.2880859375,1.00439453125,1184,0.0,0.0,0.0,False,1182,14660154687488.0,14660154687488.0,14660154687488.0,14660154687488.0,14660154687488.0,14660154687488.0,14660154687488.0,14660154687488.0,14660154687488.0,14660154687488.0,14660154687488.0,14660154687488.0,14660154687488.0,14660154687488.0,14660154687488.0,14660154687488.0,14660154687488.0,14660154687488.0,1431655765,1431655765,1431655765
-0.2803559899330139,-0.0029279999434947968,0.9794159531593323,1.8550000190734863,-2.7562499046325684,1.6800000667572021,0.38864001631736755,0.3266200125217438,-0.5052599906921387,1191,-0.017578125,0.2880859375,0.994140625,1192,0.0,0.0,0.0,False,1190,14660154687488.0,14660154687488.0,14660154687488.0,14660154687488.0,14660154687488.0,14660154687488.0,14660154687488.0,14660154687488.0,14660154687488.0,14660154687488.0,14660154687488.0,14660154687488.0,14660154687488.0,14660154687488.0,14660154687488.0,14660154687488.0,14660154687488.0,14660154687488.0,1431655765,1431655765,1431655765
-0.28181999921798706,0.0,0.9838079810142517,1.9249999523162842,-2.870000123977661,1.6712499856948853,0.3955000042915344,0.3243800103664398,-0.5045599937438965,1201,0.00732421875,0.310546875,0.9716796875,1202,0.0,0.0,0.0,False,1200,14660154687488.0,14660154687488.0,14660154687488.0,14660154687488.0,14660154687488.0,14660154687488.0,14660154687488.0,14660154687488.0,14660154687488.0,14660154687488.0,14660154687488.0,14660154687488.0,14660154687488.0,14660154687488.0,14660154687488.0,14660154687488.0,14660154687488.0,14660154687488.0,1431655765,1431655765,1431655765
-0.2869440019130707,0.0007319999858736992,0.9779520034790039,1.6974999904632568,-2.791249990463257,1.7762500047683716,0.39816001057624817,0.32326000928878784,-0.5021800398826599,1209,0.00390625,0.31005859375,0.9716796875,1210,0.0,0.0,0.0,False,1208,14660154687488.0,14660154687488.0,14660154687488.0,14660154687488.0,14660154687488.0,14660154687488.0,14660154687488.0,14660154687488.0,14660154687488.0,14660154687488.0,14660154687488.0,14660154687488.0,14660154687488.0,14660154687488.0,14660154687488.0,14660154687488.0,14660154687488.0,14660154687488.0,1431655765,1431655765,1431655765
-0.2744999825954437,-0.0007319999858736992,0.9845399856567383,1.5575000047683716,-2.677500009536743,1.784999966621399,0.3959200084209442,0.32368001341819763,-0.506659984588623,1217,-0.00732421875,0.2841796875,0.986328125,1218,0.0,0.0,0.0,False,1216,14660154687488.0,14660154687488.0,14660154687488.0,14660154687488.0,14660154687488.0,14660154687488.0,14660154687488.0,14660154687488.0,14660154687488.0,14660154687488.0,14660154687488.0,14660154687488.0,14660154687488.0,14660154687488.0,14660154687488.0,14660154687488.0,14660154687488.0,14660154687488.0,1431655765,1431655765,1431655765
-0.28547999262809753,-0.0007319999858736992,0.9698999524116516,1.6449999809265137,-2.922499895095825,1.627500057220459,0.39424002170562744,0.3194800019264221,-0.49980002641677856,1227,0.0029296875,0.30859375,0.98291015625,1228,0.0,0.0,0.0,False,1226,14660154687488.0,14660154687488.0,14660154687488.0,14660154687488.0,14660154687488.0,14660154687488.0,14660154687488.0,14660154687488.0,14660154687488.0,14660154687488.0,14660154687488.0,14660154687488.0,14660154687488.0,14660154687488.0,14660154687488.0,14660154687488.0,14660154687488.0,14660154687488.0,1431655765,1431655765,1431655765
-0.2913359999656677,0.004391999915242195,0.9720959663391113,1.6712499856948853,-2.703749895095825,1.618749976158142,0.3957799971103668,0.32298001646995544,-0.5047000050544739,1235,-0.0009765625,0.3134765625,0.986328125,1236,0.0,0.0,0.0,False,1234,14660154687488.0,14660154687488.0,14660154687488.0,14660154687488.0,14660154687488.0,14660154687488.0,14660154687488.0,14660154687488.0,14660154687488.0,14660154687488.0,14660154687488.0,14660154687488.0,14660154687488.0,14660154687488.0,14660154687488.0,14660154687488.0,14660154687488.0,14660154687488.0,1431655765,1431655765,1431655765
-0.28474798798561096,-0.0021959999576210976,0.9874680042266846,1.6100000143051147,-2.9487500190734863,1.7062499523162842,0.3960600197315216,0.32298001646995544,-0.5005000233650208,1243,0.0,0.3125,0.978515625,1244,0.0,0.0,0.0,False,1242,14660154687488.0,14660154687488.0,14660154687488.0,14660154687488.0,14660154687488.0,14660154687488.0,14660154687488.0,14660154687488.0,14660154687488.0,14660154687488.0,14660154687488.0,14660154687488.0,14660154687488.0,14660154687488.0,14660154687488.0,14660154687488.0,14660154687488.0,14660154687488.0,1431655765,1431655765,1431655765
-0.27962398529052734,0.0029279999434947968,0.9772199988365173,1.6362500190734863,-2.8087499141693115,1.8987500667572021,0.3920000195503235,0.3206000030040741,-0.4982600212097168,1251,0.00927734375,0.3154296875,0.96923828125,1252,0.0,0.0,0.0,False,1250,14660154687488.0,14660154687488.0,14660154687488.0,14660154687488.0,14660154687488.0,14660154687488.0,14660154687488.0,14660154687488.0,14660154687488.0,14660154687488.0,14660154687488.0,14660154687488.0,14660154687488.0,14660154687488.0,14660154687488.0,14660154687488.0,14660154687488.0,14660154687488.0,1431655765,1431655765,1431655765
-0.2913359999656677,0.007319999858736992,0.9640439748764038,1.5750000476837158,-2.8087499141693115,1.6887500286102295,0.39354002475738525,0.3168199956417084,-0.5087600350379944,1261,0.009765625,0.30126953125,0.9736328125,1262,0.0,0.0,0.0,False,1260,14660154687488.0,14660154687488.0,14660154687488.0,14660154687488.0,14660154687488.0,14660154687488.0,14660154687488.0,14660154687488.0,14660154687488.0,14660154687488.0,14660154687488.0,14660154687488.0,14660154687488.0,14660154687488.0,14660154687488.0,14660154687488.0,14660154687488.0,14660154687488.0,1431655765,1431655765,1431655765
-0.28547999262809753,0.010247999802231789,0.9669719934463501,1.566249966621399,-2.84375,1.784999966621399,0.39886000752449036,0.31863999366760254,-0.5037199854850769,1269,0.00341796875,0.298828125,0.97119140625,1270,0.0,0.0,0.0,False,1268,14660154687488.0,14660154687488.0,14660154687488.0,14660154687488.0,14660154687488.0,14660154687488.0,14660154687488.0,14660154687488.0,14660154687488.0,14660154687488.0,14660154687488.0,14660154687488.0,14660154687488.0,14660154687488.0,14660154687488.0,14660154687488.0,14660154687488.0,14660154687488.0,1431655765,1431655765,1431655765
-0.28547999262809753,0.005123999901115894,0.9750239849090576,1.7324999570846558,-2.983750104904175,1.715000033378601,0.3977400064468384,0.32214000821113586,-0.5003600120544434,1277,-0.0166015625,0.291015625,0.9853515625,1278,0.0,0.0,0.0,False,1276,14660154687488.0,14660154687488.0,14660154687488.0,14660154687488.0,14660154687488.0,14660154687488.0,14660154687488.0,14660154687488.0,14660154687488.0,14660154687488.0,14660154687488.0,14660154687488.0,14660154687488.0,14660154687488.0,14660154687488.0,14660154687488.0,14660154687488.0,14660154687488.0,1431655765,1431655765,1431655765
-0.27596399188041687,0.006587999872863293,0.9713639616966248,1.6800000667572021,-2.896250009536743,1.6449999809265137,0.39326000213623047,0.31738001108169556,-0.5056800246238708,1287,-0.01904296875,0.28125,1.0,1288,0.0,0.0,0.0,False,1286,14660154687488.0,14660154687488.0,14660154687488.0,14660154687488.0,14660154687488.0,14660154687488.0,14660154687488.0,14660154687488.0,14660154687488.0,14660154687488.0,14660154687488.0,14660154687488.0,14660154687488.0,14660154687488.0,14660154687488.0,14660154687488.0,14660154687488.0,14660154687488.0,1431655765,1431655765,1431655765
-0.2832840085029602,0.00878399983048439,0.9728279709815979,1.7062499523162842,-2.84375,1.627500057220459,0.39508000016212463,0.32311999797821045,-0.5044200420379639,1295,-0.03271484375,0.25341796875,1.0224609375,1296,0.0,0.0,0.0,False,1294,14660154687488.0,14660154687488.0,14660154687488.0,14660154687488.0,14660154687488.0,14660154687488.0,14660154687488.0,14660154687488.0,14660154687488.0,14660154687488.0,14660154687488.0,14660154687488.0,14660154687488.0,14660154687488.0,14660154687488.0,14660154687488.0,14660154687488.0,14660154687488.0,1431655765,1431655765,1431655765
-0.28181999921798706,-0.0007319999858736992,0.9764879941940308,1.7062499523162842,-2.668750047683716,1.6712499856948853,0.3956400156021118,0.32199999690055847,-0.5020400285720825,1303,-0.0341796875,0.26220703125,1.01708984375,1304,0.0,0.0,0.0,False,1302,14660154687488.0,14660154687488.0,14660154687488.0,14660154687488.0,14660154687488.0,14660154687488.0,14660154687488.0,14660154687488.0,14660154687488.0,14660154687488.0,14660154687488.0,14660154687488.0,14660154687488.0,14660154687488.0,14660154687488.0,14660154687488.0,14660154687488.0,14660154687488.0,1431655765,1431655765,1431655765
-0.28547999262809753,0.006587999872863293,0.9764879941940308,1.5750000476837158,-2.765000104904175,1.6012500524520874,0.39788001775741577,0.32158002257347107,-0.5049800276756287,1313,-0.02587890625,0.27783203125,0.998046875,1314,0.0,0.0,0.0,False,1312,14660154687488.0,14660154687488.0,14660154687488.0,14660154687488.0,14660154687488.0,14660154687488.0,14660154687488.0,14660154687488.0,14660154687488.0,14660154687488.0,14660154687488.0,14660154687488.0,14660154687488.0,14660154687488.0,14660154687488.0,14660154687488.0,14660154687488.0,14660154687488.0,1431655765,1431655765,1431655765
-0.28767600655555725,0.0014639999717473984,0.9677039980888367,1.627500057220459,-2.765000104904175,1.6712499856948853,0.3966200053691864,0.32269999384880066,-0.5065200328826904,1321,-0.0263671875,0.275390625,0.99853515625,1322,0.0,0.0,0.0,False,1320,14660154687488.0,14660154687488.0,14660154687488.0,14660154687488.0,14660154687488.0,14660154687488.0,14660154687488.0,14660154687488.0,14660154687488.0,14660154687488.0,14660154687488.0,14660154687488.0,14660154687488.0,14660154687488.0,14660154687488.0,14660154687488.0,14660154687488.0,14660154687488.0,1431655765,1431655765,1431655765
-0.2840159833431244,0.0029279999434947968,0.9720959663391113,1.6974999904632568,-2.7387499809265137,1.6537500619888306,0.39354002475738525,0.32326000928878784,-0.5013400316238403,1329,-0.02001953125,0.2734375,0.9990234375,1330,0.0,0.0,0.0,False,1328,14660154687488.0,14660154687488.0,14660154687488.0,14660154687488.0,14660154687488.0,14660154687488.0,14660154687488.0,14660154687488.0,14660154687488.0,14660154687488.0,14660154687488.0,14660154687488.0,14660154687488.0,14660154687488.0,14660154687488.0,14660154687488.0,14660154687488.0,14660154687488.0,1431655765,1431655765,1431655765
-0.2971920073032379,0.0014639999717473984,0.9720959663391113,1.881250023841858,-2.983750104904175,1.662500023841858,0.39970001578330994,0.31738001108169556,-0.4968600273132324,1339,-0.009765625,0.2470703125,1.0283203125,1340,0.0,0.0,0.0,False,1338,14660154687488.0,14660154687488.0,14660154687488.0,14660154687488.0,14660154687488.0,14660154687488.0,14660154687488.0,14660154687488.0,14660154687488.0,14660154687488.0,14660154687488.0,14660154687488.0,14660154687488.0,14660154687488.0,14660154687488.0,14660154687488.0,14660154687488.0,14660154687488.0,1431655765,1431655765,1431655765
-0.2898719906806946,0.0021959999576210976,0.9757559895515442,1.6537500619888306,-2.747499942779541,1.7062499523162842,0.3953600227832794,0.32311999797821045,-0.49980002641677856,1347,-0.009765625,0.26708984375,1.00634765625,1348,0.0,0.0,0.0,False,1346,14660154687488.0,14660154687488.0,14660154687488.0,14660154687488.0,14660154687488.0,14660154687488.0,14660154687488.0,14660154687488.0,14660154687488.0,14660154687488.0,14660154687488.0,14660154687488.0,14660154687488.0,14660154687488.0,14660154687488.0,14660154687488.0,14660154687488.0,14660154687488.0,1431655765,1431655765,1431655765
-0.27962398529052734,0.0014639999717473984,0.9669719934463501,1.837499976158142,-2.992500066757202,1.6800000667572021,0.39340001344680786,0.3207400143146515,-0.4971400201320648,1355,-0.01513671875,0.27099609375,0.9951171875,1356,0.0,0.0,0.0,False,1354,14660154687488.0,14660154687488.0,14660154687488.0,14660154687488.0,14660154687488.0,14660154687488.0,14660154687488.0,14660154687488.0,14660154687488.0,14660154687488.0,14660154687488.0,14660154687488.0,14660154687488.0,14660154687488.0,14660154687488.0,14660154687488.0,14660154687488.0,14660154687488.0,1431655765,1431655765,1431655765
-0.29353198409080505,-0.0029279999434947968,0.9735599756240845,1.75,-2.992500066757202,1.837499976158142,0.3960600197315216,0.3194800019264221,-0.497840017080307,1365,-0.02734375,0.248046875,0.9970703125,1366,0.0,0.0,0.0,False,1364,14660154687488.0,14660154687488.0,14660154687488.0,14660154687488.0,14660154687488.0,14660154687488.0,14660154687488.0,14660154687488.0,14660154687488.0,14660154687488.0,14660154687488.0,14660154687488.0,14660154687488.0,14660154687488.0,14660154687488.0,14660154687488.0,14660154687488.0,14660154687488.0,1431655765,1431655765,1431655765
-0.2832840085029602,-0.0029279999434947968,0.9706319570541382,1.9162499904632568,-2.84375,1.618749976158142,0.3957799971103668,0.31696000695228577,-0.4932200014591217,1373,-0.0244140625,0.25341796875,1.00390625,1374,0.0,0.0,0.0,False,1372,14660154687488.0,14660154687488.0,14660154687488.0,14660154687488.0,14660154687488.0,14660154687488.0,14660154687488.0,14660154687488.0,14660154687488.0,14660154687488.0,14660154687488.0,14660154687488.0,14660154687488.0,14660154687488.0,14660154687488.0,14660154687488.0,14660154687488.0,14660154687488.0,1431655765,1431655765,1431655765
-0.28767600655555725,0.0007319999858736992,0.9794159531593323,1.6887500286102295,-2.7300000190734863,1.662500023841858,0.39410001039505005,0.3147200047969818,-0.4992400109767914,1381,-0.02392578125,0.25634765625,1.01123046875,1382,0.0,0.0,0.0,False,1380,14660154687488.0,14660154687488.0,14660154687488.0,14660154687488.0,14660154687488.0,14660154687488.0,14660154687488.0,14660154687488.0,14660154687488.0,14660154687488.0,14660154687488.0,14660154687488.0,14660154687488.0,14660154687488.0,14660154687488.0,14660154687488.0,14660154687488.0,14660154687488.0,1431655765,1431655765,1431655765
-0.28255200386047363,-0.0014639999717473984,0.9808799624443054,1.846250057220459,-2.9312500953674316,1.715000033378601,0.3910199999809265,0.31738001108169556,-0.4940600097179413,1389,-0.0283203125,0.2724609375,0.99658203125,1390,0.0,0.0,0.0,False,1388,14660154687488.0,14660154687488.0,14660154687488.0,14660154687488.0,14660154687488.0,14660154687488.0,14660154687488.0,14660154687488.0,14660154687488.0,14660154687488.0,14660154687488.0,14660154687488.0,14660154687488.0,14660154687488.0,14660154687488.0,14660154687488.0,14660154687488.0,14660154687488.0,1431655765,1431655765,1431655765
-0.289139986038208,0.0058559998869895935,0.9713639616966248,1.6449999809265137,-2.7387499809265137,1.715000033378601,0.3928399980068207,0.3217200040817261,-0.4985400140285492,1399,-0.0322265625,0.27734375,0.994140625,1400,0.0,0.0,0.0,False,1398,14660154687488.0,14660154687488.0,14660154687488.0,14660154687488.0,14660154687488.0,14660154687488.0,14660154687488.0,14660154687488.0,14660154687488.0,14660154687488.0,14660154687488.0,14660154687488.0,14660154687488.0,14660154687488.0,14660154687488.0,14660154687488.0,14660154687488.0,14660154687488.0,1431655765,1431655765,1431655765
-0.28547999262809753,-0.0007319999858736992,0.9808799624443054,1.6974999904632568,-2.7825000286102295,1.7062499523162842,0.3960600197315216,0.3168199956417084,-0.49966001510620117,1407,-0.0322265625,0.27490234375,0.9990234375,1408,0.0,0.0,0.0,False,1406,14660154687488.0,14660154687488.0,14660154687488.0,14660154687488.0,14660154687488.0,14660154687488.0,14660154687488.0,14660154687488.0,14660154687488.0,14660154687488.0,14660154687488.0,14660154687488.0,14660154687488.0,14660154687488.0,14660154687488.0,14660154687488.0,14660154687488.0,14660154687488.0,1431655765,1431655765,1431655765
-0.2803559899330139,0.0029279999434947968,0.9750239849090576,1.933750033378601,-2.581249952316284,1.6012500524520874,0.39438000321388245,0.31905999779701233,-0.500220000743866,1415,-0.02587890625,0.27685546875,0.994140625,1416,0.0,0.0,0.0,False,1414,14660154687488.0,14660154687488.0,14660154687488.0,14660154687488.0,14660154687488.0,14660154687488.0,14660154687488.0,14660154687488.0,14660154687488.0,14660154687488.0,14660154687488.0,14660154687488.0,14660154687488.0,14660154687488.0,14660154687488.0,14660154687488.0,14660154687488.0,14660154687488.0,1431655765,1431655765,1431655765
-0.289139986038208,-0.0029279999434947968,0.9808799624443054,1.6712499856948853,-2.791249990463257,1.7587499618530273,0.39424002170562744,0.3212999999523163,-0.49630001187324524,1425,-0.01953125,0.28564453125,0.978515625,1426,0.0,0.0,0.0,False,1424,14660154687488.0,14660154687488.0,14660154687488.0,14660154687488.0,14660154687488.0,14660154687488.0,14660154687488.0,14660154687488.0,14660154687488.0,14660154687488.0,14660154687488.0,14660154687488.0,14660154687488.0,14660154687488.0,14660154687488.0,14660154687488.0,14660154687488.0,14660154687488.0,1431655765,1431655765,1431655765
-0.28840798139572144,0.0014639999717473984,0.9772199988365173,1.715000033378601,-2.9574999809265137,1.6712499856948853,0.3955000042915344,0.31766000390052795,-0.5027400255203247,1433,-0.0166015625,0.29296875,0.966796875,1434,0.0,0.0,0.0,False,1432,14660154687488.0,14660154687488.0,14660154687488.0,14660154687488.0,14660154687488.0,14660154687488.0,14660154687488.0,14660154687488.0,14660154687488.0,14660154687488.0,14660154687488.0,14660154687488.0,14660154687488.0,14660154687488.0,14660154687488.0,14660154687488.0,14660154687488.0,14660154687488.0,1431655765,1431655765,1431655765
-0.2942639887332916,0.0029279999434947968,0.9735599756240845,1.5137499570846558,-2.870000123977661,1.8637499809265137,0.3955000042915344,0.32311999797821045,-0.5005000233650208,1441,-0.01220703125,0.28466796875,0.97216796875,1442,0.0,0.0,0.0,False,1440,14660154687488.0,14660154687488.0,14660154687488.0,14660154687488.0,14660154687488.0,14660154687488.0,14660154687488.0,14660154687488.0,14660154687488.0,14660154687488.0,14660154687488.0,14660154687488.0,14660154687488.0,14660154687488.0,14660154687488.0,14660154687488.0,14660154687488.0,14660154687488.0,1431655765,1431655765,1431655765
-0.28181999921798706,0.0,0.9720959663391113,1.6100000143051147,-2.992500066757202,1.881250023841858,0.39340001344680786,0.3201799988746643,-0.5007799863815308,1451,-0.01806640625,0.2685546875,0.982421875,1452,0.0,0.0,0.0,False,1450,14660154687488.0,14660154687488.0,14660154687488.0,14660154687488.0,14660154687488.0,14660154687488.0,14660154687488.0,14660154687488.0,14660154687488.0,14660154687488.0,14660154687488.0,14660154687488.0,14660154687488.0,14660154687488.0,14660154687488.0,14660154687488.0,14660154687488.0,14660154687488.0,1431655765,1431655765,1431655765
-0.2942639887332916,0.0021959999576210976,0.9757559895515442,1.8987500667572021,-2.7387499809265137,1.9162499904632568,0.3905999958515167,0.32199999690055847,-0.4985400140285492,1459,-0.0234375,0.2685546875,0.98779296875,1460,0.0,0.0,0.0,False,1458,14660154687488.0,14660154687488.0,14660154687488.0,14660154687488.0,14660154687488.0,14660154687488.0,14660154687488.0,14660154687488.0,14660154687488.0,14660154687488.0,14660154687488.0,14660154687488.0,14660154687488.0,14660154687488.0,14660154687488.0,14660154687488.0,14660154687488.0,14660154687488.0,1431655765,1431655765,1431655765
-0.28840798139572144,0.005123999901115894,0.9757559895515442,1.4874999523162842,-2.8787500858306885,1.8025000095367432,0.3910199999809265,0.3208799958229065,-0.506380021572113,1467,-0.00927734375,0.28955078125,0.97314453125,1468,0.0,0.0,0.0,False,1466,14660154687488.0,14660154687488.0,14660154687488.0,14660154687488.0,14660154687488.0,14660154687488.0,14660154687488.0,14660154687488.0,14660154687488.0,14660154687488.0,14660154687488.0,14660154687488.0,14660154687488.0,14660154687488.0,14660154687488.0,14660154687488.0,14660154687488.0,14660154687488.0,1431655765,1431655765,1431655765
-0.2803559899330139,0.007319999858736992,0.9750239849090576,1.8287500143051147,-2.8612499237060547,1.7675000429153442,0.39368000626564026,0.31780001521110535,-0.5079200267791748,1477,-0.0205078125,0.27392578125,1.00048828125,1478,0.0,0.0,0.0,False,1476,14660154687488.0,14660154687488.0,14660154687488.0,14660154687488.0,14660154687488.0,14660154687488.0,14660154687488.0,14660154687488.0,14660154687488.0,14660154687488.0,14660154687488.0,14660154687488.0,14660154687488.0,14660154687488.0,14660154687488.0,14660154687488.0,14660154687488.0,14660154687488.0,1431655765,1431655765,1431655765
-0.28547999262809753,-0.0014639999717473984,0.9698999524116516,1.837499976158142,-2.983750104904175,1.9600000381469727,0.3924200236797333,0.32214000821113586,-0.5041400194168091,1485,-0.02294921875,0.26220703125,1.00537109375,1486,0.0,0.0,0.0,False,1484,14660154687488.0,14660154687488.0,14660154687488.0,14660154687488.0,14660154687488.0,14660154687488.0,14660154687488.0,14660154687488.0,14660154687488.0,14660154687488.0,14660154687488.0,14660154687488.0,14660154687488.0,14660154687488.0,14660154687488.0,14660154687488.0,14660154687488.0,14660154687488.0,1431655765,1431655765,1431655765
-0.2810879945755005,0.0021959999576210976,0.9830759763717651,1.6537500619888306,-3.0012500286102295,1.5924999713897705,0.3964800238609314,0.31723999977111816,-0.5081999897956848,1493,-0.02294921875,0.2783203125,0.98095703125,1494,0.0,0.0,0.0,False,1492,14660154687488.0,14660154687488.0,14660154687488.0,14660154687488.0,14660154687488.0,14660154687488.0,14660154687488.0,14660154687488.0,14660154687488.0,14660154687488.0,14660154687488.0,14660154687488.0,14660154687488.0,14660154687488.0,14660154687488.0,14660154687488.0,14660154687488.0,14660154687488.0,1431655765,1431655765,1431655765
-0.2752319872379303,0.0021959999576210976,0.974291980266571,1.9424999952316284,-2.817500114440918,1.662500023841858,0.39480000734329224,0.3211600184440613,-0.5104399919509888,1503,-0.021484375,0.2705078125,0.9794921875,1504,0.0,0.0,0.0,False,1502,14660154687488.0,14660154687488.0,14660154687488.0,14660154687488.0,14660154687488.0,14660154687488.0,14660154687488.0,14660154687488.0,14660154687488.0,14660154687488.0,14660154687488.0,14660154687488.0,14660154687488.0,14660154687488.0,14660154687488.0,14660154687488.0,14660154687488.0,14660154687488.0,1431655765,1431655765,1431655765
-0.2862119972705841,0.0007319999858736992,0.9728279709815979,1.8550000190734863,-2.887500047683716,1.6362500190734863,0.4011000096797943,0.315280020236969,-0.5065200328826904,1511,-0.0234375,0.26806640625,0.978515625,1512,0.0,0.0,0.0,False,1510,14660154687488.0,14660154687488.0,14660154687488.0,14660154687488.0,14660154687488.0,14660154687488.0,14660154687488.0,14660154687488.0,14660154687488.0,14660154687488.0,14660154687488.0,14660154687488.0,14660154687488.0,14660154687488.0,14660154687488.0,14660154687488.0,14660154687488.0,14660154687488.0,1431655765,1431655765,1431655765
-0.289139986038208,0.0014639999717473984,0.9764879941940308,1.4874999523162842,-2.694999933242798,1.7412500381469727,0.39480000734329224,0.3212999999523163,-0.5067999958992004,1519,-0.0224609375,0.27490234375,0.97802734375,1520,0.0,0.0,0.0,False,1518,14660154687488.0,14660154687488.0,14660154687488.0,14660154687488.0,14660154687488.0,14660154687488.0,14660154687488.0,14660154687488.0,14660154687488.0,14660154687488.0,14660154687488.0,14660154687488.0,14660154687488.0,14660154687488.0,14660154687488.0,14660154687488.0,14660154687488.0,14660154687488.0,1431655765,1431655765,1431655765
-0.2840159833431244,0.0,0.9801479578018188,1.8200000524520874,-2.694999933242798,1.618749976158142,0.3973200023174286,0.31863999366760254,-0.5081999897956848,1527,-0.0234375,0.2880859375,0.974609375,1528,0.0,0.0,0.0,False,1526,14660154687488.0,14660154687488.0,14660154687488.0,14660154687488.0,14660154687488.0,14660154687488.0,14660154687488.0,14660154687488.0,14660154687488.0,14660154687488.0,14660154687488.0,14660154687488.0,14660154687488.0,14660154687488.0,14660154687488.0,14660154687488.0,14660154687488.0,14660154687488.0,1431655765,1431655765,1431655765
-0.28181999921798706,0.005123999901115894,0.974291980266571,1.784999966621399,-2.8787500858306885,1.7937500476837158,0.397460013628006,0.3242399990558624,-0.5139400362968445,1537,-0.0234375,0.28173828125,0.97119140625,1538,0.0,0.0,0.0,False,1536,14660154687488.0,14660154687488.0,14660154687488.0,14660154687488.0,14660154687488.0,14660154687488.0,14660154687488.0,14660154687488.0,14660154687488.0,14660154687488.0,14660154687488.0,14660154687488.0,14660154687488.0,14660154687488.0,14660154687488.0,14660154687488.0,14660154687488.0,14660154687488.0,1431655765,1431655765,1431655765
-0.28840798139572144,-0.003659999929368496,0.9757559895515442,1.5575000047683716,-2.913749933242798,1.7324999570846558,0.3971800208091736,0.3199000060558319,-0.5067999958992004,1545,-0.0224609375,0.27001953125,0.99169921875,1546,0.0,0.0,0.0,False,1544,14660154687488.0,14660154687488.0,14660154687488.0,14660154687488.0,14660154687488.0,14660154687488.0,14660154687488.0,14660154687488.0,14660154687488.0,14660154687488.0,14660154687488.0,14660154687488.0,14660154687488.0,14660154687488.0,14660154687488.0,14660154687488.0,14660154687488.0,14660154687488.0,1431655765,1431655765,1431655765
-0.28255200386047363,0.0,0.9764879941940308,1.5399999618530273,-2.7125000953674316,1.6100000143051147,0.39914000034332275,0.31808000802993774,-0.5047000050544739,1553,-0.025390625,0.2685546875,1.0107421875,1554,0.0,0.0,0.0,False,1552,14660154687488.0,14660154687488.0,14660154687488.0,14660154687488.0,14660154687488.0,14660154687488.0,14660154687488.0,14660154687488.0,14660154687488.0,14660154687488.0,14660154687488.0,14660154687488.0,14660154687488.0,14660154687488.0,14660154687488.0,14660154687488.0,14660154687488.0,14660154687488.0,1431655765,1431655765,1431655765
-0.2862119972705841,0.00878399983048439,0.9713639616966248,1.6712499856948853,-2.966249942779541,1.7324999570846558,0.39871999621391296,0.3257800042629242,-0.5048400163650513,1563,-0.025390625,0.26708984375,1.0087890625,1564,0.0,0.0,0.0,False,1562,14660154687488.0,14660154687488.0,14660154687488.0,14660154687488.0,14660154687488.0,14660154687488.0,14660154687488.0,14660154687488.0,14660154687488.0,14660154687488.0,14660154687488.0,14660154687488.0,14660154687488.0,14660154687488.0,14660154687488.0,14660154687488.0,14660154687488.0,14660154687488.0,1431655765,1431655765,1431655765
-0.2810879945755005,0.010247999802231789,0.9757559895515442,1.9600000381469727,-2.940000057220459,1.8112499713897705,0.4006800055503845,0.3201799988746643,-0.5030199885368347,1571,-0.03173828125,0.2568359375,1.00439453125,1572,0.0,0.0,0.0,False,1570,14660154687488.0,14660154687488.0,14660154687488.0,14660154687488.0,14660154687488.0,14660154687488.0,14660154687488.0,14660154687488.0,14660154687488.0,14660154687488.0,14660154687488.0,14660154687488.0,14660154687488.0,14660154687488.0,14660154687488.0,14660154687488.0,14660154687488.0,14660154687488.0,1431655765,1431655765,1431655765
-0.2810879945755005,0.0007319999858736992,0.9779520034790039,1.7675000429153442,-2.7300000190734863,1.75,0.39438000321388245,0.3249399960041046,-0.50764000415802,1579,-0.01123046875,0.2734375,0.978515625,1580,0.0,0.0,0.0,False,1578,14660154687488.0,14660154687488.0,14660154687488.0,14660154687488.0,14660154687488.0,14660154687488.0,14660154687488.0,14660154687488.0,14660154687488.0,14660154687488.0,14660154687488.0,14660154687488.0,14660154687488.0,14660154687488.0,14660154687488.0,14660154687488.0,14660154687488.0,14660154687488.0,1431655765,1431655765,1431655765
-0.29060399532318115,-0.0007319999858736992,0.9823439717292786,1.837499976158142,-2.84375,1.7675000429153442,0.3971800208091736,0.32354000210762024,-0.5047000050544739,1589,-0.00634765625,0.28857421875,0.9833984375,1590,0.0,0.0,0.0,False,1588,14660154687488.0,14660154687488.0,14660154687488.0,14660154687488.0,14660154687488.0,14660154687488.0,14660154687488.0,14660154687488.0,14660154687488.0,14660154687488.0,14660154687488.0,14660154687488.0,14660154687488.0,14660154687488.0,14660154687488.0,14660154687488.0,14660154687488.0,14660154687488.0,1431655765,1431655765,1431655765
-0.2862119972705841,0.0029279999434947968,0.9713639616966248,1.7324999570846558,-2.7125000953674316,1.6800000667572021,0.396340012550354,0.32186001539230347,-0.5049800276756287,1597,-0.00927734375,0.287109375,0.99951171875,1598,0.0,0.0,0.0,False,1596,14660154687488.0,14660154687488.0,14660154687488.0,14660154687488.0,14660154687488.0,14660154687488.0,14660154687488.0,14660154687488.0,14660154687488.0,14660154687488.0,14660154687488.0,14660154687488.0,14660154687488.0,14660154687488.0,14660154687488.0,14660154687488.0,14660154687488.0,14660154687488.0,1431655765,1431655765,1431655765
-0.27962398529052734,0.0,0.9698999524116516,1.6537500619888306,-2.7387499809265137,1.7237499952316284,0.39438000321388245,0.3193400204181671,-0.5035800337791443,1605,-0.01708984375,0.279296875,1.00048828125,1606,0.0,0.0,0.0,False,1604,14660154687488.0,14660154687488.0,14660154687488.0,14660154687488.0,14660154687488.0,14660154687488.0,14660154687488.0,14660154687488.0,14660154687488.0,14660154687488.0,14660154687488.0,14660154687488.0,14660154687488.0,14660154687488.0,14660154687488.0,14660154687488.0,14660154687488.0,14660154687488.0,1431655765,1431655765,1431655765
-0.28547999262809753,0.0007319999858736992,0.9713639616966248,1.715000033378601,-2.9574999809265137,1.8025000095367432,0.3959200084209442,0.32284000515937805,-0.5033000111579895,1615,-0.03369140625,0.26806640625,0.99560546875,1616,0.0,0.0,0.0,False,1614,14660154687488.0,14660154687488.0,14660154687488.0,14660154687488.0,14660154687488.0,14660154687488.0,14660154687488.0,14660154687488.0,14660154687488.0,14660154687488.0,14660154687488.0,14660154687488.0,14660154687488.0,14660154687488.0,14660154687488.0,14660154687488.0,14660154687488.0,14660154687488.0,1431655765,1431655765,1431655765
-0.28840798139572144,0.0,0.981611967086792,1.7762500047683716,-2.9312500953674316,1.75,0.3977400064468384,0.3193400204181671,-0.49966001510620117,1623,-0.02978515625,0.2548828125,1.0009765625,1624,0.0,0.0,0.0,False,1622,14660154687488.0,14660154687488.0,14660154687488.0,14660154687488.0,14660154687488.0,14660154687488.0,14660154687488.0,14660154687488.0,14660154687488.0,14660154687488.0,14660154687488.0,14660154687488.0,14660154687488.0,14660154687488.0,14660154687488.0,14660154687488.0,14660154687488.0,14660154687488.0,1431655765,1431655765,1431655765
-0.2869440019130707,0.0014639999717473984,0.9713639616966248,1.8112499713897705,-2.7387499809265137,1.7324999570846558,0.3957799971103668,0.32340002059936523,-0.5006400346755981,1631,-0.0380859375,0.24267578125,1.0126953125,1632,0.0,0.0,0.0,False,1630,14660154687488.0,14660154687488.0,14660154687488.0,14660154687488.0,14660154687488.0,14660154687488.0,14660154687488.0,14660154687488.0,14660154687488.0,14660154687488.0,14660154687488.0,14660154687488.0,14660154687488.0,14660154687488.0,14660154687488.0,14660154687488.0,14660154687488.0,14660154687488.0,1431655765,1431655765,1431655765
-0.28840798139572144,-0.0007319999858736992,0.9706319570541382,1.8112499713897705,-2.703749895095825,1.5924999713897705,0.3968999981880188,0.32354000210762024,-0.5044200420379639,1641,-0.0380859375,0.24609375,1.00732421875,1642,0.0,0.0,0.0,False,1640,14660154687488.0,14660154687488.0,14660154687488.0,14660154687488.0,14660154687488.0,14660154687488.0,14660154687488.0,14660154687488.0,14660154687488.0,14660154687488.0,14660154687488.0,14660154687488.0,14660154687488.0,14660154687488.0,14660154687488.0,14660154687488.0,14660154687488.0,14660154687488.0,1431655765,1431655765,1431655765
-0.2898719906806946,0.010247999802231789,0.9720959663391113,1.662500023841858,-2.84375,1.75,0.3976000249385834,0.3252200186252594,-0.5052599906921387,1649,-0.017578125,0.27880859375,0.97998046875,1650,0.0,0.0,0.0,False,1648,14660154687488.0,14660154687488.0,14660154687488.0,14660154687488.0,14660154687488.0,14660154687488.0,14660154687488.0,14660154687488.0,14660154687488.0,14660154687488.0,14660154687488.0,14660154687488.0,14660154687488.0,14660154687488.0,14660154687488.0,14660154687488.0,14660154687488.0,14660154687488.0,1431655765,1431655765,1431655765
-0.27889198064804077,0.005123999901115894,0.9786840081214905,1.6974999904632568,-2.651250123977661,1.7587499618530273,0.39900001883506775,0.326200008392334,-0.4986800253391266,1657,-0.02392578125,0.26904296875,0.98876953125,1658,0.0,0.0,0.0,False,1656,14660154687488.0,14660154687488.0,14660154687488.0,14660154687488.0,14660154687488.0,14660154687488.0,14660154687488.0,14660154687488.0,14660154687488.0,14660154687488.0,14660154687488.0,14660154687488.0,14660154687488.0,14660154687488.0,14660154687488.0,14660154687488.0,14660154687488.0,14660154687488.0,1431655765,1431655765,1431655765
-0.2920680046081543,-0.0014639999717473984,0.9684360027313232,1.6712499856948853,-2.817500114440918,1.9600000381469727,0.39830002188682556,0.3256400227546692,-0.5070800185203552,1665,-0.02783203125,0.267578125,0.99560546875,1666,0.0,0.0,0.0,False,1664,14660154687488.0,14660154687488.0,14660154687488.0,14660154687488.0,14660154687488.0,14660154687488.0,14660154687488.0,14660154687488.0,14660154687488.0,14660154687488.0,14660154687488.0,14660154687488.0,14660154687488.0,14660154687488.0,14660154687488.0,14660154687488.0,14660154687488.0,14660154687488.0,1431655765,1431655765,1431655765
-0.2781600058078766,-0.003659999929368496,0.9720959663391113,1.7237499952316284,-2.703749895095825,1.7675000429153442,0.3959200084209442,0.3192000091075897,-0.5021800398826599,1675,-0.021484375,0.27099609375,1.001953125,1676,0.0,0.0,0.0,False,1674,14660154687488.0,14660154687488.0,14660154687488.0,14660154687488.0,14660154687488.0,14660154687488.0,14660154687488.0,14660154687488.0,14660154687488.0,14660154687488.0,14660154687488.0,14660154687488.0,14660154687488.0,14660154687488.0,14660154687488.0,14660154687488.0,14660154687488.0,14660154687488.0,1431655765,1431655765,1431655765
-0.2862119972705841,0.010247999802231789,0.9728279709815979,1.8899999856948853,-2.7825000286102295,1.6974999904632568,0.39382001757621765,0.32186001539230347,-0.5030199885368347,1683,-0.0234375,0.26611328125,1.00341796875,1684,0.0,0.0,0.0,False,1682,14660154687488.0,14660154687488.0,14660154687488.0,14660154687488.0,14660154687488.0,14660154687488.0,14660154687488.0,14660154687488.0,14660154687488.0,14660154687488.0,14660154687488.0,14660154687488.0,14660154687488.0,14660154687488.0,14660154687488.0,14660154687488.0,14660154687488.0,14660154687488.0,1431655765,1431655765,1431655765
-0.28767600655555725,0.0021959999576210976,0.9757559895515442,1.7062499523162842,-2.721250057220459,1.8112499713897705,0.3966200053691864,0.3214400112628937,-0.5041400194168091,1691,-0.02099609375,0.2734375,0.99462890625,1692,0.0,0.0,0.0,False,1690,14660154687488.0,14660154687488.0,14660154687488.0,14660154687488.0,14660154687488.0,14660154687488.0,14660154687488.0,14660154687488.0,14660154687488.0,14660154687488.0,14660154687488.0,14660154687488.0,14660154687488.0,14660154687488.0,14660154687488.0,14660154687488.0,14660154687488.0,14660154687488.0,1431655765,1431655765,1431655765
-0.28767600655555725,0.0021959999576210976,0.9845399856567383,1.8725000619888306,-2.721250057220459,1.53125,0.39788001775741577,0.32326000928878784,-0.4995200037956238,1701,-0.01611328125,0.2763671875,0.9921875,1702,0.0,0.0,0.0,False,1700,14660154687488.0,14660154687488.0,14660154687488.0,14660154687488.0,14660154687488.0,14660154687488.0,14660154687488.0,14660154687488.0,14660154687488.0,14660154687488.0,14660154687488.0,14660154687488.0,14660154687488.0,14660154687488.0,14660154687488.0,14660154687488.0,14660154687488.0,14660154687488.0,1431655765,1431655765,1431655765
-0.27669599652290344,0.0021959999576210976,0.9698999524116516,1.9424999952316284,-2.7300000190734863,1.7675000429153442,0.3976000249385834,0.32368001341819763,-0.5080600380897522,1709,-0.03369140625,0.26123046875,1.00048828125,1710,0.0,0.0,0.0,False,1708,14660154687488.0,14660154687488.0,14660154687488.0,14660154687488.0,14660154687488.0,14660154687488.0,14660154687488.0,14660154687488.0,14660154687488.0,14660154687488.0,14660154687488.0,14660154687488.0,14660154687488.0,14660154687488.0,14660154687488.0,14660154687488.0,14660154687488.0,14660154687488.0,1431655765,1431655765,1431655765
-0.28767600655555725,-0.0021959999576210976,0.9713639616966248,1.6100000143051147,-2.8612499237060547,1.7237499952316284,0.3953600227832794,0.31905999779701233,-0.4993800222873688,1717,-0.04296875,0.25439453125,1.01025390625,1718,0.0,0.0,0.0,False,1716,14660154687488.0,14660154687488.0,14660154687488.0,14660154687488.0,14660154687488.0,14660154687488.0,14660154687488.0,14660154687488.0,14660154687488.0,14660154687488.0,14660154687488.0,14660154687488.0,14660154687488.0,14660154687488.0,14660154687488.0,14660154687488.0,14660154687488.0,14660154687488.0,1431655765,1431655765,1431655765
-0.28474798798561096,0.003659999929368496,0.9779520034790039,1.6449999809265137,-2.581249952316284,1.618749976158142,0.396340012550354,0.31668001413345337,-0.5041400194168091,1727,-0.03759765625,0.275390625,1.001953125,1728,0.0,0.0,0.0,False,1726,14660154687488.0,14660154687488.0,14660154687488.0,14660154687488.0,14660154687488.0,14660154687488.0,14660154687488.0,14660154687488.0,14660154687488.0,14660154687488.0,14660154687488.0,14660154687488.0,14660154687488.0,14660154687488.0,14660154687488.0,14660154687488.0,14660154687488.0,14660154687488.0,1431655765,1431655765,1431655765
-0.28474798798561096,-0.0021959999576210976,0.9757559895515442,1.8200000524520874,-3.0012500286102295,1.6100000143051147,0.3968999981880188,0.31822001934051514,-0.5056800246238708,1735,-0.02294921875,0.2978515625,0.97998046875,1736,0.0,0.0,0.0,False,1734,14660154687488.0,14660154687488.0,14660154687488.0,14660154687488.0,14660154687488.0,14660154687488.0,14660154687488.0,14660154687488.0,14660154687488.0,14660154687488.0,14660154687488.0,14660154687488.0,14660154687488.0,14660154687488.0,14660154687488.0,14660154687488.0,14660154687488.0,14660154687488.0,1431655765,1431655765,1431655765
-0.2898719906806946,-0.0021959999576210976,0.9720959663391113,1.8637499809265137,-2.6162500381469727,1.6887500286102295,0.3928399980068207,0.31905999779701233,-0.511139988899231,1743,-0.02294921875,0.2744140625,0.984375,1744,0.0,0.0,0.0,False,1742,14660154687488.0,14660154687488.0,14660154687488.0,14660154687488.0,14660154687488.0,14660154687488.0,14660154687488.0,14660154687488.0,14660154687488.0,14660154687488.0,14660154687488.0,14660154687488.0,14660154687488.0,14660154687488.0,14660154687488.0,14660154687488.0,14660154687488.0,14660154687488.0,1431655765,1431655765,1431655765
-0.2913359999656677,0.0014639999717473984,0.9750239849090576,1.6537500619888306,-2.765000104904175,1.7324999570846558,0.39438000321388245,0.3210200071334839,-0.5035800337791443,1753,-0.02685546875,0.2568359375,0.9990234375,1754,0.0,0.0,0.0,False,1752,14660154687488.0,14660154687488.0,14660154687488.0,14660154687488.0,14660154687488.0,14660154687488.0,14660154687488.0,14660154687488.0,14660154687488.0,14660154687488.0,14660154687488.0,14660154687488.0,14660154687488.0,14660154687488.0,14660154687488.0,14660154687488.0,14660154687488.0,14660154687488.0,1431655765,1431655765,1431655765
-0.2862119972705841,0.0021959999576210976,0.9845399856567383,1.9249999523162842,-2.677500009536743,1.5924999713897705,0.39465999603271484,0.3217200040817261,-0.4986800253391266,1761,-0.02392578125,0.25390625,0.9970703125,1762,0.0,0.0,0.0,False,1760,14660154687488.0,14660154687488.0,14660154687488.0,14660154687488.0,14660154687488.0,14660154687488.0,14660154687488.0,14660154687488.0,14660154687488.0,14660154687488.0,14660154687488.0,14660154687488.0,14660154687488.0,14660154687488.0,14660154687488.0,14660154687488.0,14660154687488.0,14660154687488.0,1431655765,1431655765,1431655765
-0.28767600655555725,-0.0021959999576210976,0.9677039980888367,1.7937500476837158,-2.992500066757202,1.5837500095367432,0.39382001757621765,0.3207400143146515,-0.5072200298309326,1769,-0.0126953125,0.27099609375,0.97216796875,1770,0.0,0.0,0.0,False,1768,14660154687488.0,14660154687488.0,14660154687488.0,14660154687488.0,14660154687488.0,14660154687488.0,14660154687488.0,14660154687488.0,14660154687488.0,14660154687488.0,14660154687488.0,14660154687488.0,14660154687488.0,14660154687488.0,14660154687488.0,14660154687488.0,14660154687488.0,14660154687488.0,1431655765,1431655765,1431655765
-0.29060399532318115,-0.0021959999576210976,0.9757559895515442,1.6712499856948853,-2.870000123977661,1.837499976158142,0.3967600166797638,0.32381999492645264,-0.4995200037956238,1781,-0.01708984375,0.29345703125,0.978515625,1782,0.0,0.0,0.0,False,1780,14660154687488.0,14660154687488.0,14660154687488.0,14660154687488.0,14660154687488.0,14660154687488.0,14660154687488.0,14660154687488.0,14660154687488.0,14660154687488.0,14660154687488.0,14660154687488.0,14660154687488.0,14660154687488.0,14660154687488.0,14660154687488.0,14660154687488.0,14660154687488.0,1431655765,1431655765,1431655765
