ax,ay,az,gx,gy,gz,mx,my,mz,hg_ax,hg_ay,hg_az,latitude,longitude,altitude,GPS Lock,rocketState,timeStamp
-0.9845399856567383,-0.02781599946320057,0.16396799683570862,1.6449999809265137,-2.4937500953674316,1.408750057220459,-0.15820001065731049,-0.06496000289916992,-0.3469200134277344,0.0,0.0,0.0,0.0,0.0,0.0,False,0,23
0.0,0.0,0.0,0.0,0.0,0.0,0.0,0.0,0.0,-0.0029296875,1.0166015625,0.19775390625,0.0,0.0,0.0,False,0,24
0.0,0.0,0.0,0.0,0.0,0.0,0.0,0.0,0.0,0.0,0.0,0.0,0.0,0.0,0.0,False,0,21
-0.9874680042266846,-0.011711999773979187,0.1727519929409027,1.5225000381469727,-2.257499933242798,1.3387500047683716,-0.16016000509262085,-0.06509999930858612,-0.3511199951171875,0.0,0.0,0.0,0.0,0.0,0.0,False,0,40
0.0,0.0,0.0,0.0,0.0,0.0,0.0,0.0,0.0,0.00732421875,1.02587890625,0.20751953125,0.0,0.0,0.0,False,0,41
0.0,0.0,0.0,0.0,0.0,0.0,0.0,0.0,0.0,0.0,0.0,0.0,0.0,0.0,0.0,False,0,38
-0.9977160096168518,-0.01903199963271618,0.15664799511432648,1.4262499809265137,-2.2225000858306885,1.4874999523162842,-0.15455999970436096,-0.06552000343799591,-0.35406002402305603,0.0,0.0,0.0,0.0,0.0,0.0,False,0,58
0.0,0.0,0.0,0.0,0.0,0.0,0.0,0.0,0.0,-0.009765625,0.9921875,0.2236328125,0.0,0.0,0.0,False,0,59
0.0,0.0,0.0,0.0,0.0,0.0,0.0,0.0,0.0,0.0,0.0,0.0,0.0,0.0,0.0,False,0,56
-0.9955199956893921,-0.011711999773979187,0.16835999488830566,1.4524999856948853,-2.266249895095825,1.1549999713897705,-0.15666000545024872,-0.05795999988913536,-0.34747999906539917,0.0,0.0,0.0,0.0,0.0,0.0,False,0,75
0.0,0.0,0.0,0.0,0.0,0.0,0.0,0.0,0.0,-0.0234375,0.9892578125,0.1943359375,0.0,0.0,0.0,False,0,76
0.0,0.0,0.0,0.0,0.0,0.0,0.0,0.0,0.0,0.0,0.0,0.0,0.0,0.0,0.0,False,0,73
-1.0057679414749146,-0.019763998687267303,0.1668960005044937,1.7062499523162842,-2.2750000953674316,1.2337499856948853,-0.163100004196167,-0.06440000236034393,-0.34398001432418823,0.0,0.0,0.0,0.0,0.0,0.0,False,0,92
0.0,0.0,0.0,0.0,0.0,0.0,0.0,0.0,0.0,-0.025390625,0.99365234375,0.19140625,0.0,0.0,0.0,False,0,93
0.0,0.0,0.0,0.0,0.0,0.0,0.0,0.0,0.0,0.0,0.0,0.0,0.0,0.0,0.0,False,0,90
-0.9918599724769592,-0.01903199963271618,0.17128799855709076,1.6012500524520874,-2.2487499713897705,1.2512500286102295,-0.15848000347614288,-0.058240000158548355,-0.35420000553131104,0.0,0.0,0.0,0.0,0.0,0.0,False,0,110
0.0,0.0,0.0,0.0,0.0,0.0,0.0,0.0,0.0,-0.009765625,1.0009765625,0.19921875,0.0,0.0,0.0,False,0,111
0.0,0.0,0.0,0.0,0.0,0.0,0.0,0.0,0.0,0.0,0.0,0.0,0.0,0.0,0.0,False,0,108
-0.9903959631919861,-0.01903199963271618,0.1676279902458191,1.6449999809265137,-2.484999895095825,1.4175000190734863,-0.15876001119613647,-0.05726000294089317,-0.34832000732421875,0.0,0.0,0.0,0.0,0.0,0.0,False,0,127
0.0,0.0,0.0,0.0,0.0,0.0,0.0,0.0,0.0,0.0087890625,1.0166015625,0.197265625,0.0,0.0,0.0,False,0,128
0.0,0.0,0.0,0.0,0.0,0.0,0.0,0.0,0.0,0.0,0.0,0.0,0.0,0.0,0.0,False,0,125
-0.9918599724769592,-0.02635199949145317,0.17933999001979828,1.6362500190734863,-2.0737500190734863,1.2337499856948853,-0.1469999998807907,-0.06356000155210495,-0.3547600209712982,0.0,0.0,0.0,0.0,0.0,0.0,False,0,144
0.0,0.0,0.0,0.0,0.0,0.0,0.0,0.0,0.0,0.02099609375,1.01220703125,0.2001953125,0.0,0.0,0.0,False,0,145
0.0,0.0,0.0,0.0,0.0,0.0,0.0,0.0,0.0,0.0,0.0,0.0,0.0,0.0,0.0,False,0,142
-0.9911279678344727,-0.010979999788105488,0.1756799966096878,1.7062499523162842,-2.213750123977661,1.347499966621399,-0.1576400101184845,-0.061879999935626984,-0.3560200035572052,0.0,0.0,0.0,0.0,0.0,0.0,False,0,162
0.0,0.0,0.0,0.0,0.0,0.0,0.0,0.0,0.0,-0.0107421875,1.00732421875,0.21875,0.0,0.0,0.0,False,0,163
0.0,0.0,0.0,0.0,0.0,0.0,0.0,0.0,0.0,0.0,0.0,0.0,0.0,0.0,0.0,False,0,160
-0.9911279678344727,-0.013175999745726585,0.18226799368858337,1.5575000047683716,-2.432500123977661,1.4262499809265137,-0.1527400016784668,-0.06720000505447388,-0.3550400137901306,0.0,0.0,0.0,0.0,0.0,0.0,False,0,179
0.0,0.0,0.0,0.0,0.0,0.0,0.0,0.0,0.0,-0.0087890625,0.9921875,0.20166015625,0.0,0.0,0.0,False,0,180
0.0,0.0,0.0,0.0,0.0,0.0,0.0,0.0,0.0,0.0,0.0,0.0,0.0,0.0,0.0,False,0,177
-0.9852719902992249,-0.018300000578165054,0.1727519929409027,1.2074999809265137,-2.4937500953674316,1.3650000095367432,-0.15175999701023102,-0.05726000294089317,-0.34902000427246094,0.0,0.0,0.0,0.0,0.0,0.0,False,0,198
0.0,0.0,0.0,0.0,0.0,0.0,0.0,0.0,0.0,-0.0087890625,0.994140625,0.2021484375,0.0,0.0,0.0,False,0,199
0.0,0.0,0.0,0.0,0.0,0.0,0.0,0.0,0.0,0.0,0.0,0.0,0.0,0.0,0.0,False,0,196
-0.9918599724769592,-0.01903199963271618,0.17128799855709076,1.5049999952316284,-2.336250066757202,1.4350000619888306,-0.15372000634670258,-0.050119999796152115,-0.35923999547958374,0.0,0.0,0.0,0.0,0.0,0.0,False,0,215
0.0,0.0,0.0,0.0,0.0,0.0,0.0,0.0,0.0,0.00146484375,0.998046875,0.19287109375,0.0,0.0,0.0,False,0,216
0.0,0.0,0.0,0.0,0.0,0.0,0.0,0.0,0.0,0.0,0.0,0.0,0.0,0.0,0.0,False,0,213
-0.9947879910469055,-0.021959999576210976,0.17348399758338928,1.6100000143051147,-2.4237499237060547,1.3825000524520874,-0.1524600088596344,-0.057120002806186676,-0.35322001576423645,0.0,0.0,0.0,0.0,0.0,0.0,False,0,232
0.0,0.0,0.0,0.0,0.0,0.0,0.0,0.0,0.0,-0.01123046875,0.98095703125,0.21923828125,0.0,0.0,0.0,False,0,233
0.0,0.0,0.0,0.0,0.0,0.0,0.0,0.0,0.0,0.0,0.0,0.0,0.0,0.0,0.0,False,0,230
-0.9962520003318787,-0.010247999802231789,0.18080399930477142,1.53125,-2.4412500858306885,1.3387500047683716,-0.15581999719142914,-0.057680003345012665,-0.34902000427246094,0.0,0.0,0.0,0.0,0.0,0.0,False,0,250
0.0,0.0,0.0,0.0,0.0,0.0,0.0,0.0,0.0,-0.02490234375,0.97265625,0.23193359375,0.0,0.0,0.0,False,0,251
0.0,0.0,0.0,0.0,0.0,0.0,0.0,0.0,0.0,0.0,0.0,0.0,0.0,0.0,0.0,False,0,248
-0.9852719902992249,-0.013175999745726585,0.16835999488830566,1.399999976158142,-2.40625,1.2337499856948853,-0.15637999773025513,-0.06006000190973282,-0.34929999709129333,0.0,0.0,0.0,0.0,0.0,0.0,False,0,267
0.0,0.0,0.0,0.0,0.0,0.0,0.0,0.0,0.0,-0.00927734375,0.9951171875,0.21826171875,0.0,0.0,0.0,False,0,268
0.0,0.0,0.0,0.0,0.0,0.0,0.0,0.0,0.0,0.0,0.0,0.0,0.0,0.0,0.0,False,0,265
-0.986735999584198,-0.024156000465154648,0.17128799855709076,1.3387500047683716,-2.1700000762939453,1.399999976158142,-0.15861999988555908,-0.06202000007033348,-0.34846001863479614,0.0,0.0,0.0,0.0,0.0,0.0,False,0,285
0.0,0.0,0.0,0.0,0.0,0.0,0.0,0.0,0.0,-0.01025390625,0.990234375,0.21142578125,0.0,0.0,0.0,False,0,286
0.0,0.0,0.0,0.0,0.0,0.0,0.0,0.0,0.0,0.0,0.0,0.0,0.0,0.0,0.0,False,0,283
-0.9977160096168518,-0.013907999731600285,0.18665999174118042,1.277500033378601,-2.266249895095825,1.4874999523162842,-0.14658001065254211,-0.05992000177502632,-0.3619000017642975,0.0,0.0,0.0,0.0,0.0,0.0,False,0,302
0.0,0.0,0.0,0.0,0.0,0.0,0.0,0.0,0.0,-0.00927734375,0.9990234375,0.21533203125,0.0,0.0,0.0,False,0,303
0.0,0.0,0.0,0.0,0.0,0.0,0.0,0.0,0.0,0.0,0.0,0.0,0.0,0.0,0.0,False,0,300
-0.9984479546546936,-0.020495999604463577,0.16909199953079224,1.4524999856948853,-2.3450000286102295,1.4524999856948853,-0.1530200093984604,-0.058800000697374344,-0.3507000207901001,0.0,0.0,0.0,0.0,0.0,0.0,False,0,319
0.0,0.0,0.0,0.0,0.0,0.0,0.0,0.0,0.0,-0.0048828125,0.9921875,0.21923828125,0.0,0.0,0.0,False,0,320
0.0,0.0,0.0,0.0,0.0,0.0,0.0,0.0,0.0,0.0,0.0,0.0,0.0,0.0,0.0,False,0,317
-0.9896639585494995,-0.0226919986307621,0.17348399758338928,1.8200000524520874,-2.432500123977661,1.4262499809265137,-0.14952000975608826,-0.06356000155210495,-0.3567200005054474,0.0,0.0,0.0,0.0,0.0,0.0,False,0,337
0.0,0.0,0.0,0.0,0.0,0.0,0.0,0.0,0.0,0.00390625,0.99560546875,0.20166015625,0.0,0.0,0.0,False,0,338
0.0,0.0,0.0,0.0,0.0,0.0,0.0,0.0,0.0,0.0,0.0,0.0,0.0,0.0,0.0,False,0,335
-0.9999119639396667,-0.0226919986307621,0.1786080002784729,1.5137499570846558,-2.4237499237060547,1.3125,-0.1526000052690506,-0.0609000027179718,-0.3498600125312805,0.0,0.0,0.0,0.0,0.0,0.0,False,0,354
0.0,0.0,0.0,0.0,0.0,0.0,0.0,0.0,0.0,0.00048828125,0.9853515625,0.203125,0.0,0.0,0.0,False,0,355
0.0,0.0,0.0,0.0,0.0,0.0,0.0,0.0,0.0,0.0,0.0,0.0,0.0,0.0,0.0,False,0,352
-0.9947879910469055,-0.01903199963271618,0.17714399099349976,1.5837500095367432,-2.887500047683716,1.3737499713897705,-0.15372000634670258,-0.05795999988913536,-0.35853999853134155,0.0,0.0,0.0,0.0,0.0,0.0,False,0,372
0.0,0.0,0.0,0.0,0.0,0.0,0.0,0.0,0.0,0.00390625,0.98486328125,0.20947265625,0.0,0.0,0.0,False,0,373
0.0,0.0,0.0,0.0,0.0,0.0,0.0,0.0,0.0,0.0,0.0,0.0,0.0,0.0,0.0,False,0,370
-0.9918599724769592,-0.018300000578165054,0.18592800199985504,1.3562500476837158,-2.1962499618530273,1.4612499475479126,-0.15372000634670258,-0.06006000190973282,-0.35294002294540405,0.0,0.0,0.0,0.0,0.0,0.0,False,0,389
0.0,0.0,0.0,0.0,0.0,0.0,0.0,0.0,0.0,-0.00146484375,0.97802734375,0.2060546875,0.0,0.0,0.0,False,0,390
0.0,0.0,0.0,0.0,0.0,0.0,0.0,0.0,0.0,0.0,0.0,0.0,0.0,0.0,0.0,False,0,387
-0.9984479546546936,-0.018300000578165054,0.1756799966096878,1.6012500524520874,-2.3887500762939453,1.4787499904632568,-0.15036000311374664,-0.060760002583265305,-0.35280001163482666,0.0,0.0,0.0,0.0,0.0,0.0,False,0,404
0.0,0.0,0.0,0.0,0.0,0.0,0.0,0.0,0.0,-0.005859375,1.0185546875,0.19140625,0.0,0.0,0.0,False,0,405
0.0,0.0,0.0,0.0,0.0,0.0,0.0,0.0,0.0,0.0,0.0,0.0,0.0,0.0,0.0,False,0,402
-0.9947879910469055,-0.012443999759852886,0.18812400102615356,1.53125,-2.336250066757202,1.3562500476837158,-0.15162000060081482,-0.061739999800920486,-0.34846001863479614,0.0,0.0,0.0,0.0,0.0,0.0,False,0,422
0.0,0.0,0.0,0.0,0.0,0.0,0.0,0.0,0.0,0.009765625,1.01708984375,0.17822265625,0.0,0.0,0.0,False,0,423
0.0,0.0,0.0,0.0,0.0,0.0,0.0,0.0,0.0,0.0,0.0,0.0,0.0,0.0,0.0,False,0,420
-0.9918599724769592,-0.032207999378442764,0.1756799966096878,1.5750000476837158,-2.362499952316284,1.2599999904632568,-0.15399999916553497,-0.058240000158548355,-0.3514000177383423,0.0,0.0,0.0,0.0,0.0,0.0,False,0,439
0.0,0.0,0.0,0.0,0.0,0.0,0.0,0.0,0.0,0.02294921875,1.00537109375,0.19482421875,0.0,0.0,0.0,False,0,440
0.0,0.0,0.0,0.0,0.0,0.0,0.0,0.0,0.0,0.0,0.0,0.0,0.0,0.0,0.0,False,0,437
-0.9903959631919861,-0.010979999788105488,0.17641200125217438,1.3037500381469727,-2.3012499809265137,1.3125,-0.1572200059890747,-0.05740000307559967,-0.3521000146865845,0.0,0.0,0.0,0.0,0.0,0.0,False,0,457
0.0,0.0,0.0,0.0,0.0,0.0,0.0,0.0,0.0,0.0224609375,0.998046875,0.19775390625,0.0,0.0,0.0,False,0,458
0.0,0.0,0.0,0.0,0.0,0.0,0.0,0.0,0.0,0.0,0.0,0.0,0.0,0.0,0.0,False,0,455
-0.9933239817619324,-0.012443999759852886,0.17494799196720123,1.4524999856948853,-2.528749942779541,1.3562500476837158,-0.16058000922203064,-0.057819999754428864,-0.3448200225830078,0.0,0.0,0.0,0.0,0.0,0.0,False,0,474
0.0,0.0,0.0,0.0,0.0,0.0,0.0,0.0,0.0,0.0029296875,0.9833984375,0.212890625,0.0,0.0,0.0,False,0,475
0.0,0.0,0.0,0.0,0.0,0.0,0.0,0.0,0.0,0.0,0.0,0.0,0.0,0.0,0.0,False,0,472
-1.0035719871520996,-0.02122800052165985,0.1844639927148819,1.7412500381469727,-2.4149999618530273,1.4175000190734863,-0.1622600108385086,-0.062300000339746475,-0.3570000231266022,0.0,0.0,0.0,0.0,0.0,0.0,False,0,491
0.0,0.0,0.0,0.0,0.0,0.0,0.0,0.0,0.0,0.0009765625,0.99169921875,0.21142578125,0.0,0.0,0.0,False,0,492
0.0,0.0,0.0,0.0,0.0,0.0,0.0,0.0,0.0,0.0,0.0,0.0,0.0,0.0,0.0,False,0,489
-0.9933239817619324,-0.016103999689221382,0.1617719978094101,1.8725000619888306,-2.2225000858306885,1.443750023841858,-0.16155999898910522,-0.06146000325679779,-0.3551799952983856,0.0,0.0,0.0,0.0,0.0,0.0,False,0,509
0.0,0.0,0.0,0.0,0.0,0.0,0.0,0.0,0.0,-0.01171875,0.9912109375,0.2138671875,0.0,0.0,0.0,False,0,510
0.0,0.0,0.0,0.0,0.0,0.0,0.0,0.0,0.0,0.0,0.0,0.0,0.0,0.0,0.0,False,0,507
-0.9999119639396667,-0.013175999745726585,0.1676279902458191,1.408750057220459,-2.0824999809265137,1.408750057220459,-0.15414001047611237,-0.057680003345012665,-0.35447999835014343,0.0,0.0,0.0,0.0,0.0,0.0,False,0,526
0.0,0.0,0.0,0.0,0.0,0.0,0.0,0.0,0.0,-0.0146484375,0.98486328125,0.220703125,0.0,0.0,0.0,False,0,527
0.0,0.0,0.0,0.0,0.0,0.0,0.0,0.0,0.0,0.0,0.0,0.0,0.0,0.0,0.0,False,0,524
-0.9969840049743652,-0.023423999547958374,0.18007199466228485,1.566249966621399,-2.353749990463257,1.3125,-0.15861999988555908,-0.06453999876976013,-0.34747999906539917,0.0,0.0,0.0,0.0,0.0,0.0,False,0,544
0.0,0.0,0.0,0.0,0.0,0.0,0.0,0.0,0.0,-0.0078125,0.9912109375,0.22265625,0.0,0.0,0.0,False,0,545
0.0,0.0,0.0,0.0,0.0,0.0,0.0,0.0,0.0,0.0,0.0,0.0,0.0,0.0,0.0,False,0,542
-0.9969840049743652,-0.015371999703347683,0.1727519929409027,1.3037500381469727,-2.3712499141693115,1.2862499952316284,-0.152319997549057,-0.059780001640319824,-0.344539999961853,0.0,0.0,0.0,0.0,0.0,0.0,False,0,561
0.0,0.0,0.0,0.0,0.0,0.0,0.0,0.0,0.0,0.0029296875,0.990234375,0.2158203125,0.0,0.0,0.0,False,0,562
0.0,0.0,0.0,0.0,0.0,0.0,0.0,0.0,0.0,0.0,0.0,0.0,0.0,0.0,0.0,False,0,559
-0.9918599724769592,-0.019763998687267303,0.18226799368858337,1.5837500095367432,-2.572499990463257,1.277500033378601,-0.1576400101184845,-0.061180002987384796,-0.3515399992465973,0.0,0.0,0.0,0.0,0.0,0.0,False,0,578
0.0,0.0,0.0,0.0,0.0,0.0,0.0,0.0,0.0,0.009765625,0.99609375,0.2021484375,0.0,0.0,0.0,False,0,579
0.0,0.0,0.0,0.0,0.0,0.0,0.0,0.0,0.0,0.0,0.0,0.0,0.0,0.0,0.0,False,0,576
-0.9925919771194458,-0.014639999717473984,0.18373200297355652,1.6974999904632568,-2.5112500190734863,1.443750023841858,-0.16170001029968262,-0.059780001640319824,-0.3568600118160248,0.0,0.0,0.0,0.0,0.0,0.0,False,0,596
0.0,0.0,0.0,0.0,0.0,0.0,0.0,0.0,0.0,-0.005859375,0.994140625,0.2001953125,0.0,0.0,0.0,False,0,597
0.0,0.0,0.0,0.0,0.0,0.0,0.0,0.0,0.0,0.0,0.0,0.0,0.0,0.0,0.0,False,0,594
-0.9874680042266846,-0.00951599981635809,0.1786080002784729,1.7062499523162842,-2.327500104904175,1.5399999618530273,-0.1527400016784668,-0.05642000213265419,-0.3462200164794922,0.0,0.0,0.0,0.0,0.0,0.0,False,0,613
0.0,0.0,0.0,0.0,0.0,0.0,0.0,0.0,0.0,-0.01416015625,0.98388671875,0.19921875,0.0,0.0,0.0,False,0,614
0.0,0.0,0.0,0.0,0.0,0.0,0.0,0.0,0.0,0.0,0.0,0.0,0.0,0.0,0.0,False,0,611
-0.9896639585494995,-0.016103999689221382,0.18080399930477142,1.5225000381469727,-2.502500057220459,1.2687499523162842,-0.15848000347614288,-0.05992000177502632,-0.3619000017642975,0.0,0.0,0.0,0.0,0.0,0.0,False,0,631
0.0,0.0,0.0,0.0,0.0,0.0,0.0,0.0,0.0,-0.005859375,0.984375,0.20703125,0.0,0.0,0.0,False,0,632
0.0,0.0,0.0,0.0,0.0,0.0,0.0,0.0,0.0,0.0,0.0,0.0,0.0,0.0,0.0,False,0,629
-0.9882000088691711,-0.01756799966096878,0.1727519929409027,1.408750057220459,-2.4674999713897705,1.3212499618530273,-0.15386000275611877,-0.05530000105500221,-0.3595200181007385,0.0,0.0,0.0,0.0,0.0,0.0,False,0,648
0.0,0.0,0.0,0.0,0.0,0.0,0.0,0.0,0.0,-0.01025390625,0.986328125,0.2080078125,0.0,0.0,0.0,False,0,649
0.0,0.0,0.0,0.0,0.0,0.0,0.0,0.0,0.0,0.0,0.0,0.0,0.0,0.0,0.0,False,0,646
-0.9903959631919861,-0.014639999717473984,0.18885599076747894,1.7412500381469727,-2.3012499809265137,1.4612499475479126,-0.15498000383377075,-0.06397999823093414,-0.3555999994277954,0.0,0.0,0.0,0.0,0.0,0.0,False,0,665
0.0,0.0,0.0,0.0,0.0,0.0,0.0,0.0,0.0,-0.0205078125,0.98486328125,0.2158203125,0.0,0.0,0.0,False,0,666
0.0,0.0,0.0,0.0,0.0,0.0,0.0,0.0,0.0,0.0,0.0,0.0,0.0,0.0,0.0,False,0,663
-0.9947879910469055,-0.01756799966096878,0.1954440027475357,1.3300000429153442,-2.3012499809265137,1.3037500381469727,-0.1527400016784668,-0.058240000158548355,-0.3550400137901306,0.0,0.0,0.0,0.0,0.0,0.0,False,0,683
0.0,0.0,0.0,0.0,0.0,0.0,0.0,0.0,0.0,-0.01904296875,0.98388671875,0.2177734375,0.0,0.0,0.0,False,0,684
0.0,0.0,0.0,0.0,0.0,0.0,0.0,0.0,0.0,0.0,0.0,0.0,0.0,0.0,0.0,False,0,681
-0.9845399856567383,-0.025619998574256897,0.17787599563598633,1.5487500429153442,-2.555000066757202,1.4524999856948853,-0.1520400047302246,-0.05726000294089317,-0.3568600118160248,0.0,0.0,0.0,0.0,0.0,0.0,False,0,700
0.0,0.0,0.0,0.0,0.0,0.0,0.0,0.0,0.0,-0.01318359375,0.9814453125,0.2080078125,0.0,0.0,0.0,False,0,701
0.0,0.0,0.0,0.0,0.0,0.0,0.0,0.0,0.0,0.0,0.0,0.0,0.0,0.0,0.0,False,0,698
-0.994055986404419,-0.019763998687267303,0.17641200125217438,1.6537500619888306,-2.4412500858306885,1.3125,-0.1576400101184845,-0.05852000042796135,-0.36246001720428467,0.0,0.0,0.0,0.0,0.0,0.0,False,0,718
0.0,0.0,0.0,0.0,0.0,0.0,0.0,0.0,0.0,-0.015625,0.982421875,0.21240234375,0.0,0.0,0.0,False,0,719
0.0,0.0,0.0,0.0,0.0,0.0,0.0,0.0,0.0,0.0,0.0,0.0,0.0,0.0,0.0,False,0,716
-0.9969840049743652,-0.013175999745726585,0.18080399930477142,1.5137499570846558,-2.4412500858306885,1.399999976158142,-0.15876001119613647,-0.06006000190973282,-0.35392001271247864,0.0,0.0,0.0,0.0,0.0,0.0,False,0,735
0.0,0.0,0.0,0.0,0.0,0.0,0.0,0.0,0.0,-0.0078125,0.98828125,0.20068359375,0.0,0.0,0.0,False,0,736
0.0,0.0,0.0,0.0,0.0,0.0,0.0,0.0,0.0,0.0,0.0,0.0,0.0,0.0,0.0,False,0,733
-0.9808799624443054,-0.02122800052165985,0.18958799540996552,1.5924999713897705,-2.458750009536743,1.2862499952316284,-0.16043999791145325,-0.05894000083208084,-0.3555999994277954,0.0,0.0,0.0,0.0,0.0,0.0,False,0,752
0.0,0.0,0.0,0.0,0.0,0.0,0.0,0.0,0.0,0.00390625,0.99658203125,0.185546875,0.0,0.0,0.0,False,0,753
0.0,0.0,0.0,0.0,0.0,0.0,0.0,0.0,0.0,0.0,0.0,0.0,0.0,0.0,0.0,False,0,750
-0.9918599724769592,-0.013907999731600285,0.187391996383667,1.3125,-2.4674999713897705,1.3737499713897705,-0.16114000976085663,-0.05278000235557556,-0.3570000231266022,0.0,0.0,0.0,0.0,0.0,0.0,False,0,770
0.0,0.0,0.0,0.0,0.0,0.0,0.0,0.0,0.0,0.01220703125,0.99951171875,0.18408203125,0.0,0.0,0.0,False,0,771
0.0,0.0,0.0,0.0,0.0,0.0,0.0,0.0,0.0,0.0,0.0,0.0,0.0,0.0,0.0,False,0,768
-0.9882000088691711,-0.02122800052165985,0.17787599563598633,1.6974999904632568,-2.283750057220459,1.3212499618530273,-0.15680000185966492,-0.053060002624988556,-0.3558800220489502,0.0,0.0,0.0,0.0,0.0,0.0,False,0,787
0.0,0.0,0.0,0.0,0.0,0.0,0.0,0.0,0.0,-0.00341796875,0.99755859375,0.20068359375,0.0,0.0,0.0,False,0,788
0.0,0.0,0.0,0.0,0.0,0.0,0.0,0.0,0.0,0.0,0.0,0.0,0.0,0.0,0.0,False,0,785
-0.986735999584198,-0.016103999689221382,0.1786080002784729,1.5837500095367432,-2.3887500762939453,1.3562500476837158,-0.16380000114440918,-0.05460000038146973,-0.3509800136089325,0.0,0.0,0.0,0.0,0.0,0.0,False,0,805
0.0,0.0,0.0,0.0,0.0,0.0,0.0,0.0,0.0,-0.02001953125,0.99169921875,0.19970703125,0.0,0.0,0.0,False,0,806
0.0,0.0,0.0,0.0,0.0,0.0,0.0,0.0,0.0,0.0,0.0,0.0,0.0,0.0,0.0,False,0,803
-0.994055986404419,-0.01756799966096878,0.17714399099349976,1.496250033378601,-2.40625,1.2687499523162842,-0.15610000491142273,-0.05460000038146973,-0.3565800189971924,0.0,0.0,0.0,0.0,0.0,0.0,False,0,822
0.0,0.0,0.0,0.0,0.0,0.0,0.0,0.0,0.0,-0.00537109375,0.9873046875,0.1982421875,0.0,0.0,0.0,False,0,823
0.0,0.0,0.0,0.0,0.0,0.0,0.0,0.0,0.0,0.0,0.0,0.0,0.0,0.0,0.0,False,0,820
-0.9984479546546936,-0.016835998743772507,0.17933999001979828,1.7937500476837158,-2.7300000190734863,1.2862499952316284,-0.15581999719142914,-0.0610400028526783,-0.35392001271247864,0.0,0.0,0.0,0.0,0.0,0.0,False,0,839
0.0,0.0,0.0,0.0,0.0,0.0,0.0,0.0,0.0,0.009765625,0.9892578125,0.216796875,0.0,0.0,0.0,False,0,840
0.0,0.0,0.0,0.0,0.0,0.0,0.0,0.0,0.0,0.0,0.0,0.0,0.0,0.0,0.0,False,0,837
-0.9830759763717651,-0.013175999745726585,0.17641200125217438,1.566249966621399,-2.309999942779541,1.3912500143051147,-0.16043999791145325,-0.061180002987384796,-0.35322001576423645,0.0,0.0,0.0,0.0,0.0,0.0,False,0,857
0.0,0.0,0.0,0.0,0.0,0.0,0.0,0.0,0.0,-0.0009765625,0.9951171875,0.21533203125,0.0,0.0,0.0,False,0,858
0.0,0.0,0.0,0.0,0.0,0.0,0.0,0.0,0.0,0.0,0.0,0.0,0.0,0.0,0.0,False,0,855
-0.9977160096168518,-0.023423999547958374,0.18519599735736847,1.5399999618530273,-2.3187499046325684,1.4175000190734863,-0.152879998087883,-0.05726000294089317,-0.34832000732421875,0.0,0.0,0.0,0.0,0.0,0.0,False,0,874
0.0,0.0,0.0,0.0,0.0,0.0,0.0,0.0,0.0,-0.00146484375,0.9853515625,0.22021484375,0.0,0.0,0.0,False,0,875
0.0,0.0,0.0,0.0,0.0,0.0,0.0,0.0,0.0,0.0,0.0,0.0,0.0,0.0,0.0,False,0,872
-0.9896639585494995,-0.018300000578165054,0.19178399443626404,1.566249966621399,-2.213750123977661,1.2687499523162842,-0.15428000688552856,-0.05222000181674957,-0.3500000238418579,0.0,0.0,0.0,0.0,0.0,0.0,False,0,892
0.0,0.0,0.0,0.0,0.0,0.0,0.0,0.0,0.0,0.009765625,1.0,0.205078125,0.0,0.0,0.0,False,0,893
0.0,0.0,0.0,0.0,0.0,0.0,0.0,0.0,0.0,0.0,0.0,0.0,0.0,0.0,0.0,False,0,890
-0.9925919771194458,-0.023423999547958374,0.1705559939146042,1.4350000619888306,-2.4149999618530273,1.3212499618530273,-0.16561999917030334,-0.058800000697374344,-0.34734001755714417,0.0,0.0,0.0,0.0,0.0,0.0,False,0,909
0.0,0.0,0.0,0.0,0.0,0.0,0.0,0.0,0.0,0.01318359375,0.9892578125,0.21142578125,0.0,0.0,0.0,False,0,910
0.0,0.0,0.0,0.0,0.0,0.0,0.0,0.0,0.0,0.0,0.0,0.0,0.0,0.0,0.0,False,0,907
-0.9977160096168518,-0.018300000578165054,0.17202000319957733,1.6712499856948853,-2.3975000381469727,1.496250033378601,-0.16002000868320465,-0.06328000128269196,-0.34747999906539917,0.0,0.0,0.0,0.0,0.0,0.0,False,0,926
0.0,0.0,0.0,0.0,0.0,0.0,0.0,0.0,0.0,-0.0048828125,0.99462890625,0.21875,0.0,0.0,0.0,False,0,927
0.0,0.0,0.0,0.0,0.0,0.0,0.0,0.0,0.0,0.0,0.0,0.0,0.0,0.0,0.0,False,0,924
-0.9838079810142517,-0.020495999604463577,0.17714399099349976,1.4350000619888306,-2.327500104904175,1.496250033378601,-0.16198000311851501,-0.06048000231385231,-0.3550400137901306,0.0,0.0,0.0,0.0,0.0,0.0,False,0,944
0.0,0.0,0.0,0.0,0.0,0.0,0.0,0.0,0.0,-0.0048828125,0.9912109375,0.2158203125,0.0,0.0,0.0,False,0,945
0.0,0.0,0.0,0.0,0.0,0.0,0.0,0.0,0.0,0.0,0.0,0.0,0.0,0.0,0.0,False,0,942
-0.9984479546546936,-0.02635199949145317,0.18519599735736847,1.5399999618530273,-2.581249952316284,1.4350000619888306,-0.15175999701023102,-0.058240000158548355,-0.3500000238418579,0.0,0.0,0.0,0.0,0.0,0.0,False,0,961
0.0,0.0,0.0,0.0,0.0,0.0,0.0,0.0,0.0,-0.0087890625,0.99267578125,0.22900390625,0.0,0.0,0.0,False,0,962
0.0,0.0,0.0,0.0,0.0,0.0,0.0,0.0,0.0,0.0,0.0,0.0,0.0,0.0,0.0,False,0,959
-0.9933239817619324,-0.0226919986307621,0.1815359890460968,1.6974999904632568,-2.694999933242798,1.3825000524520874,-0.15693999826908112,-0.05908000096678734,-0.3504199981689453,0.0,0.0,0.0,0.0,0.0,0.0,False,0,979
0.0,0.0,0.0,0.0,0.0,0.0,0.0,0.0,0.0,-0.015625,0.99462890625,0.22900390625,0.0,0.0,0.0,False,0,980
0.0,0.0,0.0,0.0,0.0,0.0,0.0,0.0,0.0,0.0,0.0,0.0,0.0,0.0,0.0,False,0,977
-1.0006439685821533,-0.015371999703347683,0.1815359890460968,1.4787499904632568,-2.3887500762939453,1.3562500476837158,-0.16520000994205475,-0.058800000697374344,-0.34860000014305115,0.0,0.0,0.0,0.0,0.0,0.0,False,0,996
0.0,0.0,0.0,0.0,0.0,0.0,0.0,0.0,0.0,0.00439453125,0.9853515625,0.21728515625,0.0,0.0,0.0,False,0,997
0.0,0.0,0.0,0.0,0.0,0.0,0.0,0.0,0.0,0.0,0.0,0.0,0.0,0.0,0.0,False,0,994
-0.9911279678344727,-0.02122800052165985,0.18592800199985504,1.4874999523162842,-2.362499952316284,1.3912500143051147,-0.162540003657341,-0.05628000199794769,-0.3504199981689453,0.0,0.0,0.0,0.0,0.0,0.0,False,0,1013
0.0,0.0,0.0,0.0,0.0,0.0,0.0,0.0,0.0,-0.0166015625,0.98779296875,0.212890625,0.0,0.0,0.0,False,0,1014
0.0,0.0,0.0,0.0,0.0,0.0,0.0,0.0,0.0,0.0,0.0,0.0,0.0,0.0,0.0,False,0,1011
-0.9918599724769592,-0.020495999604463577,0.1698240041732788,1.8550000190734863,-2.651250123977661,1.4524999856948853,-0.16492000222206116,-0.05558000132441521,-0.3508400022983551,0.0,0.0,0.0,0.0,0.0,0.0,False,0,1031
0.0,0.0,0.0,0.0,0.0,0.0,0.0,0.0,0.0,-0.03271484375,0.978515625,0.21826171875,0.0,0.0,0.0,False,0,1032
0.0,0.0,0.0,0.0,0.0,0.0,0.0,0.0,0.0,0.0,0.0,0.0,0.0,0.0,0.0,False,0,1029
-0.9969840049743652,-0.020495999604463577,0.18080399930477142,1.7675000429153442,-2.502500057220459,1.4612499475479126,-0.1570800095796585,-0.05152000114321709,-0.34258002042770386,0.0,0.0,0.0,0.0,0.0,0.0,False,0,1048
0.0,0.0,0.0,0.0,0.0,0.0,0.0,0.0,0.0,-0.03515625,0.9765625,0.22265625,0.0,0.0,0.0,False,0,1049
0.0,0.0,0.0,0.0,0.0,0.0,0.0,0.0,0.0,0.0,0.0,0.0,0.0,0.0,0.0,False,0,1046
-0.9962520003318787,-0.019763998687267303,0.19324800372123718,1.4175000190734863,-2.143749952316284,1.2162500619888306,-0.1622600108385086,-0.05558000132441521,-0.3458000123500824,0.0,0.0,0.0,0.0,0.0,0.0,False,0,1066
0.0,0.0,0.0,0.0,0.0,0.0,0.0,0.0,0.0,-0.00341796875,0.99462890625,0.208984375,0.0,0.0,0.0,False,0,1067
0.0,0.0,0.0,0.0,0.0,0.0,0.0,0.0,0.0,0.0,0.0,0.0,0.0,0.0,0.0,False,0,1064
-0.994055986404419,-0.014639999717473984,0.18373200297355652,1.2949999570846558,-2.5199999809265137,1.4262499809265137,-0.1530200093984604,-0.054740000516176224,-0.34734001755714417,0.0,0.0,0.0,0.0,0.0,0.0,False,0,1083
0.0,0.0,0.0,0.0,0.0,0.0,0.0,0.0,0.0,0.0009765625,1.0009765625,0.20947265625,0.0,0.0,0.0,False,0,1084
0.0,0.0,0.0,0.0,0.0,0.0,0.0,0.0,0.0,0.0,0.0,0.0,0.0,0.0,0.0,False,0,1081
-0.9918599724769592,-0.016835998743772507,0.18226799368858337,1.2512500286102295,-2.7300000190734863,1.3650000095367432,-0.15876001119613647,-0.06244000047445297,-0.3463599979877472,0.0,0.0,0.0,0.0,0.0,0.0,False,0,1100
0.0,0.0,0.0,0.0,0.0,0.0,0.0,0.0,0.0,-0.0087890625,0.978515625,0.2451171875,0.0,0.0,0.0,False,0,1101
0.0,0.0,0.0,0.0,0.0,0.0,0.0,0.0,0.0,0.0,0.0,0.0,0.0,0.0,0.0,False,0,1098
-0.9896639585494995,-0.01903199963271618,0.18373200297355652,1.4787499904632568,-2.6600000858306885,1.3737499713897705,-0.1580599993467331,-0.05936000123620033,-0.3508400022983551,0.0,0.0,0.0,0.0,0.0,0.0,False,0,1118
0.0,0.0,0.0,0.0,0.0,0.0,0.0,0.0,0.0,-0.00390625,0.99365234375,0.22216796875,0.0,0.0,0.0,False,0,1119
0.0,0.0,0.0,0.0,0.0,0.0,0.0,0.0,0.0,0.0,0.0,0.0,0.0,0.0,0.0,False,0,1116
-0.9947879910469055,-0.01903199963271618,0.187391996383667,1.6362500190734863,-2.4674999713897705,1.3650000095367432,-0.15484000742435455,-0.06160000339150429,-0.3515399992465973,0.0,0.0,0.0,0.0,0.0,0.0,False,0,1135
0.0,0.0,0.0,0.0,0.0,0.0,0.0,0.0,0.0,-0.01318359375,0.9921875,0.20849609375,0.0,0.0,0.0,False,0,1136
0.0,0.0,0.0,0.0,0.0,0.0,0.0,0.0,0.0,0.0,0.0,0.0,0.0,0.0,0.0,False,0,1133
-0.9925919771194458,-0.024156000465154648,0.18519599735736847,1.5487500429153442,-2.458750009536743,1.3387500047683716,-0.162540003657341,-0.056700002402067184,-0.346780002117157,0.0,0.0,0.0,0.0,0.0,0.0,False,0,1153
0.0,0.0,0.0,0.0,0.0,0.0,0.0,0.0,0.0,-0.001953125,1.00146484375,0.20556640625,0.0,0.0,0.0,False,0,1154
0.0,0.0,0.0,0.0,0.0,0.0,0.0,0.0,0.0,0.0,0.0,0.0,0.0,0.0,0.0,False,0,1151
-0.9874680042266846,-0.016835998743772507,0.18519599735736847,1.5837500095367432,-2.3887500762939453,1.2862499952316284,-0.16184000670909882,-0.05348000302910805,-0.3446800112724304,0.0,0.0,0.0,0.0,0.0,0.0,False,0,1170
0.0,0.0,0.0,0.0,0.0,0.0,0.0,0.0,0.0,-0.015625,0.98388671875,0.22119140625,0.0,0.0,0.0,False,0,1171
0.0,0.0,0.0,0.0,0.0,0.0,0.0,0.0,0.0,0.0,0.0,0.0,0.0,0.0,0.0,False,0,1168
-0.9999119639396667,-0.0226919986307621,0.18007199466228485,1.496250033378601,-2.450000047683716,1.3125,-0.15904000401496887,-0.05754000321030617,-0.3449600040912628,0.0,0.0,0.0,0.0,0.0,0.0,False,0,1187
0.0,0.0,0.0,0.0,0.0,0.0,0.0,0.0,0.0,-0.01513671875,0.97705078125,0.22265625,0.0,0.0,0.0,False,0,1188
0.0,0.0,0.0,0.0,0.0,0.0,0.0,0.0,0.0,0.0,0.0,0.0,0.0,0.0,0.0,False,0,1185
-0.9925919771194458,-0.01756799966096878,0.1903200000524521,1.5399999618530273,-2.581249952316284,1.2599999904632568,-0.16002000868320465,-0.056700002402067184,-0.3507000207901001,0.0,0.0,0.0,0.0,0.0,0.0,False,0,1206
0.0,0.0,0.0,0.0,0.0,0.0,0.0,0.0,0.0,0.00048828125,0.99169921875,0.203125,0.0,0.0,0.0,False,0,1207
0.0,0.0,0.0,0.0,0.0,0.0,0.0,0.0,0.0,0.0,0.0,0.0,0.0,0.0,0.0,False,0,1204
-0.9984479546546936,-0.02122800052165985,0.1786080002784729,1.7937500476837158,-2.380000114440918,1.4612499475479126,-0.15343999862670898,-0.05432000011205673,-0.35335999727249146,0.0,0.0,0.0,0.0,0.0,0.0,False,0,1223
0.0,0.0,0.0,0.0,0.0,0.0,0.0,0.0,0.0,-0.00830078125,0.98583984375,0.205078125,0.0,0.0,0.0,False,0,1224
0.0,0.0,0.0,0.0,0.0,0.0,0.0,0.0,0.0,0.0,0.0,0.0,0.0,0.0,0.0,False,0,1221
-0.9852719902992249,-0.02122800052165985,0.17641200125217438,1.7062499523162842,-2.266249895095825,1.3212499618530273,-0.16030000150203705,-0.05950000137090683,-0.35420000553131104,0.0,0.0,0.0,0.0,0.0,0.0,False,0,1241
0.0,0.0,0.0,0.0,0.0,0.0,0.0,0.0,0.0,-0.015625,0.99951171875,0.20166015625,0.0,0.0,0.0,False,0,1242
0.0,0.0,0.0,0.0,0.0,0.0,0.0,0.0,0.0,0.0,0.0,0.0,0.0,0.0,0.0,False,0,1239
-0.9962520003318787,-0.014639999717473984,0.18373200297355652,1.618749976158142,-2.3975000381469727,1.4787499904632568,-0.1526000052690506,-0.061879999935626984,-0.3557400107383728,0.0,0.0,0.0,0.0,0.0,0.0,False,0,1258
0.0,0.0,0.0,0.0,0.0,0.0,0.0,0.0,0.0,-0.0166015625,1.00390625,0.19580078125,0.0,0.0,0.0,False,0,1259
0.0,0.0,0.0,0.0,0.0,0.0,0.0,0.0,0.0,0.0,0.0,0.0,0.0,0.0,0.0,False,0,1256
-0.9947879910469055,-0.019763998687267303,0.18885599076747894,1.3212499618530273,-2.3187499046325684,1.2512500286102295,-0.1526000052690506,-0.05684000253677368,-0.3607800006866455,0.0,0.0,0.0,0.0,0.0,0.0,False,0,1275
0.0,0.0,0.0,0.0,0.0,0.0,0.0,0.0,0.0,-0.0078125,0.998046875,0.2001953125,0.0,0.0,0.0,False,0,1276
0.0,0.0,0.0,0.0,0.0,0.0,0.0,0.0,0.0,0.0,0.0,0.0,0.0,0.0,0.0,False,0,1273
-0.994055986404419,-0.010247999802231789,0.18958799540996552,1.3037500381469727,-2.3887500762939453,1.2162500619888306,-0.15624000132083893,-0.05278000235557556,-0.34762001037597656,0.0,0.0,0.0,0.0,0.0,0.0,False,0,1293
0.0,0.0,0.0,0.0,0.0,0.0,0.0,0.0,0.0,-0.01904296875,1.00048828125,0.20263671875,0.0,0.0,0.0,False,0,1294
0.0,0.0,0.0,0.0,0.0,0.0,0.0,0.0,0.0,0.0,0.0,0.0,0.0,0.0,0.0,False,0,1291
-0.9896639585494995,-0.013175999745726585,0.187391996383667,1.3562500476837158,-2.5112500190734863,1.4524999856948853,-0.15581999719142914,-0.05460000038146973,-0.3555999994277954,0.0,0.0,0.0,0.0,0.0,0.0,False,0,1310
0.0,0.0,0.0,0.0,0.0,0.0,0.0,0.0,0.0,-0.013671875,1.013671875,0.18701171875,0.0,0.0,0.0,False,0,1311
0.0,0.0,0.0,0.0,0.0,0.0,0.0,0.0,0.0,0.0,0.0,0.0,0.0,0.0,0.0,False,0,1308
-0.9955199956893921,-0.021959999576210976,0.1786080002784729,1.4874999523162842,-2.4412500858306885,1.3125,-0.15834000706672668,-0.05040000006556511,-0.35294002294540405,0.0,0.0,0.0,0.0,0.0,0.0,False,0,1328
0.0,0.0,0.0,0.0,0.0,0.0,0.0,0.0,0.0,-0.01416015625,0.9970703125,0.20166015625,0.0,0.0,0.0,False,0,1329
0.0,0.0,0.0,0.0,0.0,0.0,0.0,0.0,0.0,0.0,0.0,0.0,0.0,0.0,0.0,False,0,1326
-0.9882000088691711,-0.0226919986307621,0.18007199466228485,1.6362500190734863,-2.3975000381469727,1.3737499713897705,-0.1531600058078766,-0.05025999993085861,-0.34747999906539917,0.0,0.0,0.0,0.0,0.0,0.0,False,0,1345
0.0,0.0,0.0,0.0,0.0,0.0,0.0,0.0,0.0,-0.01806640625,0.98828125,0.20361328125,0.0,0.0,0.0,False,0,1346
0.0,0.0,0.0,0.0,0.0,0.0,0.0,0.0,0.0,0.0,0.0,0.0,0.0,0.0,0.0,False,0,1343
-0.9852719902992249,-0.02122800052165985,0.18812400102615356,1.53125,-2.266249895095825,1.2512500286102295,-0.152879998087883,-0.050119999796152115,-0.34916001558303833,0.0,0.0,0.0,0.0,0.0,0.0,False,0,1362
0.0,0.0,0.0,0.0,0.0,0.0,0.0,0.0,0.0,-0.013671875,1.0029296875,0.203125,0.0,0.0,0.0,False,0,1363
0.0,0.0,0.0,0.0,0.0,0.0,0.0,0.0,0.0,0.0,0.0,0.0,0.0,0.0,0.0,False,0,1360
-0.9925919771194458,-0.0226919986307621,0.18373200297355652,1.7237499952316284,-2.266249895095825,1.3300000429153442,-0.1633799970149994,-0.05488000065088272,-0.3518200218677521,0.0,0.0,0.0,0.0,0.0,0.0,False,0,1380
0.0,0.0,0.0,0.0,0.0,0.0,0.0,0.0,0.0,-0.0087890625,0.998046875,0.20751953125,0.0,0.0,0.0,False,0,1381
0.0,0.0,0.0,0.0,0.0,0.0,0.0,0.0,0.0,0.0,0.0,0.0,0.0,0.0,0.0,False,0,1378
-0.9911279678344727,-0.014639999717473984,0.1815359890460968,1.5049999952316284,-2.458750009536743,1.347499966621399,-0.15428000688552856,-0.055160000920295715,-0.35378000140190125,0.0,0.0,0.0,0.0,0.0,0.0,False,0,1397
0.0,0.0,0.0,0.0,0.0,0.0,0.0,0.0,0.0,-0.009765625,0.99853515625,0.22998046875,0.0,0.0,0.0,False,0,1398
0.0,0.0,0.0,0.0,0.0,0.0,0.0,0.0,0.0,0.0,0.0,0.0,0.0,0.0,0.0,False,0,1395
-0.9969840049743652,-0.024156000465154648,0.1844639927148819,1.6100000143051147,-2.266249895095825,1.3737499713897705,-0.15918000042438507,-0.06216000020503998,-0.3521000146865845,0.0,0.0,0.0,0.0,0.0,0.0,False,0,1415
0.0,0.0,0.0,0.0,0.0,0.0,0.0,0.0,0.0,-0.013671875,0.98681640625,0.23876953125,0.0,0.0,0.0,False,0,1416
0.0,0.0,0.0,0.0,0.0,0.0,0.0,0.0,0.0,0.0,0.0,0.0,0.0,0.0,0.0,False,0,1413
-0.9925919771194458,-0.015371999703347683,0.17714399099349976,1.3912500143051147,-2.6162500381469727,1.627500057220459,-0.1633799970149994,-0.052640002220869064,-0.3519600033760071,0.0,0.0,0.0,0.0,0.0,0.0,False,0,1432
0.0,0.0,0.0,0.0,0.0,0.0,0.0,0.0,0.0,-0.009765625,0.982421875,0.228515625,0.0,0.0,0.0,False,0,1433
0.0,0.0,0.0,0.0,0.0,0.0,0.0,0.0,0.0,0.0,0.0,0.0,0.0,0.0,0.0,False,0,1430
-0.994055986404419,-0.016103999689221382,0.1705559939146042,1.881250023841858,-2.327500104904175,1.2949999570846558,-0.1628200113773346,-0.05698000267148018,-0.34929999709129333,0.0,0.0,0.0,0.0,0.0,0.0,False,0,1448
0.0,0.0,0.0,0.0,0.0,0.0,0.0,0.0,0.0,-0.01318359375,1.001953125,0.22119140625,0.0,0.0,0.0,False,0,1449
0.0,0.0,0.0,0.0,0.0,0.0,0.0,0.0,0.0,0.0,0.0,0.0,0.0,0.0,0.0,False,0,1446
-0.9977160096168518,-0.020495999604463577,0.17933999001979828,1.5575000047683716,-2.3450000286102295,1.3387500047683716,-0.16436000168323517,-0.05684000253677368,-0.35378000140190125,0.0,0.0,0.0,0.0,0.0,0.0,False,0,1466
0.0,0.0,0.0,0.0,0.0,0.0,0.0,0.0,0.0,-0.005859375,1.00927734375,0.21044921875,0.0,0.0,0.0,False,0,1467
0.0,0.0,0.0,0.0,0.0,0.0,0.0,0.0,0.0,0.0,0.0,0.0,0.0,0.0,0.0,False,0,1464
-0.9918599724769592,-0.027084000408649445,0.18080399930477142,1.566249966621399,-2.3712499141693115,1.3825000524520874,-0.1629600077867508,-0.05726000294089317,-0.34747999906539917,0.0,0.0,0.0,0.0,0.0,0.0,False,0,1483
0.0,0.0,0.0,0.0,0.0,0.0,0.0,0.0,0.0,-0.00732421875,1.00732421875,0.2119140625,0.0,0.0,0.0,False,0,1484
0.0,0.0,0.0,0.0,0.0,0.0,0.0,0.0,0.0,0.0,0.0,0.0,0.0,0.0,0.0,False,0,1481
-1.0006439685821533,-0.014639999717473984,0.18373200297355652,1.6362500190734863,-2.791249990463257,1.3212499618530273,-0.16058000922203064,-0.055160000920295715,-0.34846001863479614,0.0,0.0,0.0,0.0,0.0,0.0,False,0,1501
0.0,0.0,0.0,0.0,0.0,0.0,0.0,0.0,0.0,0.0009765625,1.0146484375,0.21337890625,0.0,0.0,0.0,False,0,1502
0.0,0.0,0.0,0.0,0.0,0.0,0.0,0.0,0.0,0.0,0.0,0.0,0.0,0.0,0.0,False,0,1499
-0.9903959631919861,-0.013907999731600285,0.18958799540996552,1.5137499570846558,-2.266249895095825,1.347499966621399,-0.1621199995279312,-0.05180000141263008,-0.35840001702308655,0.0,0.0,0.0,0.0,0.0,0.0,False,0,1518
0.0,0.0,0.0,0.0,0.0,0.0,0.0,0.0,0.0,-0.00390625,0.99853515625,0.203125,0.0,0.0,0.0,False,0,1519
0.0,0.0,0.0,0.0,0.0,0.0,0.0,0.0,0.0,0.0,0.0,0.0,0.0,0.0,0.0,False,0,1516
-0.9933239817619324,-0.02635199949145317,0.18519599735736847,1.5924999713897705,-2.4149999618530273,1.277500033378601,-0.15987999737262726,-0.05558000132441521,-0.34860000014305115,0.0,0.0,0.0,0.0,0.0,0.0,False,0,1535
0.0,0.0,0.0,0.0,0.0,0.0,0.0,0.0,0.0,0.0,1.00537109375,0.19189453125,0.0,0.0,0.0,False,0,1536
0.0,0.0,0.0,0.0,0.0,0.0,0.0,0.0,0.0,0.0,0.0,0.0,0.0,0.0,0.0,False,0,1533
-0.9918599724769592,-0.019763998687267303,0.1705559939146042,1.2949999570846558,-2.432500123977661,1.3912500143051147,-0.1624000072479248,-0.05950000137090683,-0.346780002117157,0.0,0.0,0.0,0.0,0.0,0.0,False,0,1554
0.0,0.0,0.0,0.0,0.0,0.0,0.0,0.0,0.0,0.015625,1.0146484375,0.18701171875,0.0,0.0,0.0,False,0,1555
0.0,0.0,0.0,0.0,0.0,0.0,0.0,0.0,0.0,0.0,0.0,0.0,0.0,0.0,0.0,False,0,1552
-0.994055986404419,-0.012443999759852886,0.18007199466228485,1.7412500381469727,-2.484999895095825,1.2424999475479126,-0.15568000078201294,-0.06314000487327576,-0.34929999709129333,0.0,0.0,0.0,0.0,0.0,0.0,False,0,1571
0.0,0.0,0.0,0.0,0.0,0.0,0.0,0.0,0.0,-0.00830078125,0.9677734375,0.2177734375,0.0,0.0,0.0,False,0,1572
0.0,0.0,0.0,0.0,0.0,0.0,0.0,0.0,0.0,0.0,0.0,0.0,0.0,0.0,0.0,False,0,1569
-0.994055986404419,-0.018300000578165054,0.18665999174118042,1.8287500143051147,-2.5199999809265137,1.225000023841858,-0.16561999917030334,-0.05488000065088272,-0.35420000553131104,0.0,0.0,0.0,0.0,0.0,0.0,False,0,1589
0.0,0.0,0.0,0.0,0.0,0.0,0.0,0.0,0.0,-0.02392578125,0.970703125,0.20947265625,0.0,0.0,0.0,False,0,1590
0.0,0.0,0.0,0.0,0.0,0.0,0.0,0.0,0.0,0.0,0.0,0.0,0.0,0.0,0.0,False,0,1587
-0.9933239817619324,-0.024156000465154648,0.1815359890460968,1.3300000429153442,-2.5199999809265137,1.2337499856948853,-0.16198000311851501,-0.05558000132441521,-0.34804001450538635,0.0,0.0,0.0,0.0,0.0,0.0,False,0,1606
0.0,0.0,0.0,0.0,0.0,0.0,0.0,0.0,0.0,-0.0234375,0.97314453125,0.20751953125,0.0,0.0,0.0,False,0,1607
0.0,0.0,0.0,0.0,0.0,0.0,0.0,0.0,0.0,0.0,0.0,0.0,0.0,0.0,0.0,False,0,1604
-0.9947879910469055,-0.018300000578165054,0.18373200297355652,1.4787499904632568,-2.380000114440918,1.2599999904632568,-0.15946000814437866,-0.05726000294089317,-0.35266000032424927,0.0,0.0,0.0,0.0,0.0,0.0,False,0,1623
0.0,0.0,0.0,0.0,0.0,0.0,0.0,0.0,0.0,-0.021484375,0.974609375,0.21142578125,0.0,0.0,0.0,False,0,1624
0.0,0.0,0.0,0.0,0.0,0.0,0.0,0.0,0.0,0.0,0.0,0.0,0.0,0.0,0.0,False,0,1621
-0.9845399856567383,-0.013175999745726585,0.17787599563598633,1.3650000095367432,-2.528749942779541,1.2949999570846558,-0.15876001119613647,-0.05460000038146973,-0.3603599965572357,0.0,0.0,0.0,0.0,0.0,0.0,False,0,1641
0.0,0.0,0.0,0.0,0.0,0.0,0.0,0.0,0.0,-0.0048828125,0.9853515625,0.21044921875,0.0,0.0,0.0,False,0,1642
0.0,0.0,0.0,0.0,0.0,0.0,0.0,0.0,0.0,0.0,0.0,0.0,0.0,0.0,0.0,False,0,1639
-0.9911279678344727,-0.019763998687267303,0.17787599563598633,1.75,-2.502500057220459,1.3562500476837158,-0.1577800065279007,-0.054740000516176224,-0.3607800006866455,0.0,0.0,0.0,0.0,0.0,0.0,False,0,1658
0.0,0.0,0.0,0.0,0.0,0.0,0.0,0.0,0.0,-0.0107421875,0.990234375,0.205078125,0.0,0.0,0.0,False,0,1659
0.0,0.0,0.0,0.0,0.0,0.0,0.0,0.0,0.0,0.0,0.0,0.0,0.0,0.0,0.0,False,0,1656
-0.9947879910469055,-0.01756799966096878,0.19324800372123718,1.4524999856948853,-2.4674999713897705,1.2599999904632568,-0.16492000222206116,-0.05936000123620033,-0.35294002294540405,0.0,0.0,0.0,0.0,0.0,0.0,False,0,1676
0.0,0.0,0.0,0.0,0.0,0.0,0.0,0.0,0.0,-0.001953125,0.99853515625,0.20947265625,0.0,0.0,0.0,False,0,1677
0.0,0.0,0.0,0.0,0.0,0.0,0.0,0.0,0.0,0.0,0.0,0.0,0.0,0.0,0.0,False,0,1674
-0.9903959631919861,-0.019763998687267303,0.1756799966096878,1.4524999856948853,-2.40625,1.3650000095367432,-0.1580599993467331,-0.0609000027179718,-0.3547600209712982,0.0,0.0,0.0,0.0,0.0,0.0,False,0,1693
0.0,0.0,0.0,0.0,0.0,0.0,0.0,0.0,0.0,0.00341796875,1.00048828125,0.20166015625,0.0,0.0,0.0,False,0,1694
0.0,0.0,0.0,0.0,0.0,0.0,0.0,0.0,0.0,0.0,0.0,0.0,0.0,0.0,0.0,False,0,1691
-0.9903959631919861,-0.013175999745726585,0.1903200000524521,1.399999976158142,-2.484999895095825,1.2862499952316284,-0.1626800000667572,-0.061879999935626984,-0.3460800051689148,0.0,0.0,0.0,0.0,0.0,0.0,False,0,1710
0.0,0.0,0.0,0.0,0.0,0.0,0.0,0.0,0.0,0.005859375,1.0009765625,0.19775390625,0.0,0.0,0.0,False,0,1711
0.0,0.0,0.0,0.0,0.0,0.0,0.0,0.0,0.0,0.0,0.0,0.0,0.0,0.0,0.0,False,0,1708
-0.994055986404419,-0.01903199963271618,0.19178399443626404,1.4787499904632568,-2.555000066757202,1.1549999713897705,-0.16155999898910522,-0.0610400028526783,-0.3406200110912323,0.0,0.0,0.0,0.0,0.0,0.0,False,0,1729
0.0,0.0,0.0,0.0,0.0,0.0,0.0,0.0,0.0,0.00439453125,0.99072265625,0.21044921875,0.0,0.0,0.0,False,0,1730
0.0,0.0,0.0,0.0,0.0,0.0,0.0,0.0,0.0,0.0,0.0,0.0,0.0,0.0,0.0,False,0,1727
-0.9852719902992249,-0.00878399983048439,0.18885599076747894,1.627500057220459,-2.213750123977661,1.4612499475479126,-0.16030000150203705,-0.05446000024676323,-0.3515399992465973,0.0,0.0,0.0,0.0,0.0,0.0,False,0,1746
0.0,0.0,0.0,0.0,0.0,0.0,0.0,0.0,0.0,-0.0078125,0.990234375,0.2099609375,0.0,0.0,0.0,False,0,1747
0.0,0.0,0.0,0.0,0.0,0.0,0.0,0.0,0.0,0.0,0.0,0.0,0.0,0.0,0.0,False,0,1744
-1.0028399229049683,-0.013175999745726585,0.18885599076747894,1.53125,-2.555000066757202,1.2074999809265137,-0.15512000024318695,-0.05964000150561333,-0.3495800197124481,0.0,0.0,0.0,0.0,0.0,0.0,False,0,1764
0.0,0.0,0.0,0.0,0.0,0.0,0.0,0.0,0.0,0.00048828125,1.0029296875,0.20947265625,0.0,0.0,0.0,False,0,1765
0.0,0.0,0.0,0.0,0.0,0.0,0.0,0.0,0.0,0.0,0.0,0.0,0.0,0.0,0.0,False,0,1762
-0.9933239817619324,-0.016103999689221382,0.17933999001979828,1.496250033378601,-2.721250057220459,1.2949999570846558,-0.1531600058078766,-0.05446000024676323,-0.36371999979019165,0.0,0.0,0.0,0.0,0.0,0.0,False,0,1781
0.0,0.0,0.0,0.0,0.0,0.0,0.0,0.0,0.0,0.00634765625,1.0126953125,0.21142578125,0.0,0.0,0.0,False,0,1782
0.0,0.0,0.0,0.0,0.0,0.0,0.0,0.0,0.0,0.0,0.0,0.0,0.0,0.0,0.0,False,0,1779
-0.9874680042266846,-0.013175999745726585,0.17494799196720123,1.53125,-2.4412500858306885,1.3125,-0.15693999826908112,-0.05403999984264374,-0.346640020608902,0.0,0.0,0.0,0.0,0.0,0.0,False,0,1798
0.0,0.0,0.0,0.0,0.0,0.0,0.0,0.0,0.0,0.0166015625,1.00341796875,0.19970703125,0.0,0.0,0.0,False,0,1799
0.0,0.0,0.0,0.0,0.0,0.0,0.0,0.0,0.0,0.0,0.0,0.0,0.0,0.0,0.0,False,0,1796
-0.9969840049743652,-0.01903199963271618,0.187391996383667,1.1637500524520874,-2.231250047683716,1.3825000524520874,-0.1572200059890747,-0.05838000029325485,-0.3511199951171875,0.0,0.0,0.0,0.0,0.0,0.0,False,0,1816
0.0,0.0,0.0,0.0,0.0,0.0,0.0,0.0,0.0,-0.005859375,1.00146484375,0.21337890625,0.0,0.0,0.0,False,0,1817
0.0,0.0,0.0,0.0,0.0,0.0,0.0,0.0,0.0,0.0,0.0,0.0,0.0,0.0,0.0,False,0,1814
-0.9977160096168518,-0.010979999788105488,0.18885599076747894,1.4787499904632568,-2.4412500858306885,1.1024999618530273,-0.15680000185966492,-0.05894000083208084,-0.3561600148677826,0.0,0.0,0.0,0.0,0.0,0.0,False,0,1833
0.0,0.0,0.0,0.0,0.0,0.0,0.0,0.0,0.0,-0.01611328125,0.99365234375,0.2138671875,0.0,0.0,0.0,False,0,1834
0.0,0.0,0.0,0.0,0.0,0.0,0.0,0.0,0.0,0.0,0.0,0.0,0.0,0.0,0.0,False,0,1831
-0.994055986404419,-0.018300000578165054,0.17714399099349976,1.5049999952316284,-2.283750057220459,1.2074999809265137,-0.1624000072479248,-0.05795999988913536,-0.34747999906539917,0.0,0.0,0.0,0.0,0.0,0.0,False,0,1851
0.0,0.0,0.0,0.0,0.0,0.0,0.0,0.0,0.0,-0.01025390625,0.98291015625,0.201171875,0.0,0.0,0.0,False,0,1852
0.0,0.0,0.0,0.0,0.0,0.0,0.0,0.0,0.0,0.0,0.0,0.0,0.0,0.0,0.0,False,0,1849
-0.9925919771194458,-0.01756799966096878,0.17714399099349976,1.5225000381469727,-2.3012499809265137,1.3300000429153442,-0.16184000670909882,-0.06146000325679779,-0.3505600094795227,0.0,0.0,0.0,0.0,0.0,0.0,False,0,1868
0.0,0.0,0.0,0.0,0.0,0.0,0.0,0.0,0.0,-0.0263671875,1.0234375,0.18310546875,0.0,0.0,0.0,False,0,1869
0.0,0.0,0.0,0.0,0.0,0.0,0.0,0.0,0.0,0.0,0.0,0.0,0.0,0.0,0.0,False,0,1866
-0.9903959631919861,-0.016103999689221382,0.187391996383667,1.4700000286102295,-2.450000047683716,1.4262499809265137,-0.16086000204086304,-0.06258000433444977,-0.35322001576423645,0.0,0.0,0.0,0.0,0.0,0.0,False,0,1885
0.0,0.0,0.0,0.0,0.0,0.0,0.0,0.0,0.0,-0.0244140625,1.03662109375,0.1748046875,0.0,0.0,0.0,False,0,1886
0.0,0.0,0.0,0.0,0.0,0.0,0.0,0.0,0.0,0.0,0.0,0.0,0.0,0.0,0.0,False,0,1883
-0.9889319539070129,-0.020495999604463577,0.18007199466228485,1.662500023841858,-2.2925000190734863,1.3650000095367432,-0.16604000329971313,-0.05838000029325485,-0.35840001702308655,0.0,0.0,0.0,0.0,0.0,0.0,False,0,1903
0.0,0.0,0.0,0.0,0.0,0.0,0.0,0.0,0.0,0.001953125,1.00439453125,0.18896484375,0.0,0.0,0.0,False,0,1904
0.0,0.0,0.0,0.0,0.0,0.0,0.0,0.0,0.0,0.0,0.0,0.0,0.0,0.0,0.0,False,0,1901
-0.994055986404419,-0.00878399983048439,0.18373200297355652,1.496250033378601,-2.309999942779541,1.2949999570846558,-0.15442000329494476,-0.053060002624988556,-0.3561600148677826,0.0,0.0,0.0,0.0,0.0,0.0,False,0,1920
0.0,0.0,0.0,0.0,0.0,0.0,0.0,0.0,0.0,-0.0068359375,1.00439453125,0.2158203125,0.0,0.0,0.0,False,0,1921
0.0,0.0,0.0,0.0,0.0,0.0,0.0,0.0,0.0,0.0,0.0,0.0,0.0,0.0,0.0,False,0,1918
-0.9955199956893921,-0.018300000578165054,0.18373200297355652,1.5137499570846558,-2.3450000286102295,1.1549999713897705,-0.16184000670909882,-0.05628000199794769,-0.3567200005054474,0.0,0.0,0.0,0.0,0.0,0.0,False,0,1938
0.0,0.0,0.0,0.0,0.0,0.0,0.0,0.0,0.0,-0.0166015625,0.9931640625,0.2197265625,0.0,0.0,0.0,False,0,1939
0.0,0.0,0.0,0.0,0.0,0.0,0.0,0.0,0.0,0.0,0.0,0.0,0.0,0.0,0.0,False,0,1936
-0.9925919771194458,-0.01756799966096878,0.1786080002784729,1.6800000667572021,-2.502500057220459,1.3300000429153442,-0.16114000976085663,-0.06034000217914581,-0.3570000231266022,0.0,0.0,0.0,0.0,0.0,0.0,False,0,1955
0.0,0.0,0.0,0.0,0.0,0.0,0.0,0.0,0.0,-0.0224609375,0.9892578125,0.21484375,0.0,0.0,0.0,False,0,1956
0.0,0.0,0.0,0.0,0.0,0.0,0.0,0.0,0.0,0.0,0.0,0.0,0.0,0.0,0.0,False,0,1953
-0.994055986404419,-0.018300000578165054,0.19397999346256256,1.5487500429153442,-2.380000114440918,1.3737499713897705,-0.1628200113773346,-0.05908000096678734,-0.35322001576423645,0.0,0.0,0.0,0.0,0.0,0.0,False,0,1972
0.0,0.0,0.0,0.0,0.0,0.0,0.0,0.0,0.0,-0.00634765625,0.9892578125,0.1845703125,0.0,0.0,0.0,False,0,1973
0.0,0.0,0.0,0.0,0.0,0.0,0.0,0.0,0.0,0.0,0.0,0.0,0.0,0.0,0.0,False,0,1970
-0.9911279678344727,-0.023423999547958374,0.18958799540996552,1.4175000190734863,-2.5899999141693115,1.5137499570846558,-0.16352000832557678,-0.0660800039768219,-0.34846001863479614,0.0,0.0,0.0,0.0,0.0,0.0,False,0,1990
0.0,0.0,0.0,0.0,0.0,0.0,0.0,0.0,0.0,0.00439453125,1.00146484375,0.18310546875,0.0,0.0,0.0,False,0,1991
0.0,0.0,0.0,0.0,0.0,0.0,0.0,0.0,0.0,0.0,0.0,0.0,0.0,0.0,0.0,False,0,1988
-0.9903959631919861,-0.019763998687267303,0.16909199953079224,1.662500023841858,-2.694999933242798,1.3912500143051147,-0.1629600077867508,-0.06328000128269196,-0.3416000008583069,0.0,0.0,0.0,0.0,0.0,0.0,False,0,2007
0.0,0.0,0.0,0.0,0.0,0.0,0.0,0.0,0.0,0.01220703125,0.99853515625,0.18017578125,0.0,0.0,0.0,False,0,2008
0.0,0.0,0.0,0.0,0.0,0.0,0.0,0.0,0.0,0.0,0.0,0.0,0.0,0.0,0.0,False,0,2005
-0.9911279678344727,-0.018300000578165054,0.18885599076747894,1.6537500619888306,-2.3187499046325684,1.3037500381469727,-0.16114000976085663,-0.05320000275969505,-0.3550400137901306,0.0,0.0,0.0,0.0,0.0,0.0,False,0,2025
0.0,0.0,0.0,0.0,0.0,0.0,0.0,0.0,0.0,0.01953125,1.0087890625,0.181640625,0.0,0.0,0.0,False,0,2026
0.0,0.0,0.0,0.0,0.0,0.0,0.0,0.0,0.0,0.0,0.0,0.0,0.0,0.0,0.0,False,0,2023
-0.9947879910469055,-0.016103999689221382,0.18812400102615356,1.225000023841858,-2.694999933242798,1.3037500381469727,-0.15399999916553497,-0.05250000208616257,-0.3470599949359894,0.0,0.0,0.0,0.0,0.0,0.0,False,0,2042
0.0,0.0,0.0,0.0,0.0,0.0,0.0,0.0,0.0,0.00146484375,1.001953125,0.19873046875,0.0,0.0,0.0,False,0,2043
0.0,0.0,0.0,0.0,0.0,0.0,0.0,0.0,0.0,0.0,0.0,0.0,0.0,0.0,0.0,False,0,2040
-0.9955199956893921,-0.019763998687267303,0.18007199466228485,1.6012500524520874,-2.581249952316284,1.4612499475479126,-0.15148000419139862,-0.057680003345012665,-0.3495800197124481,0.0,0.0,0.0,0.0,0.0,0.0,False,0,2059
0.0,0.0,0.0,0.0,0.0,0.0,0.0,0.0,0.0,-0.025390625,0.9794921875,0.21826171875,0.0,0.0,0.0,False,0,2060
0.0,0.0,0.0,0.0,0.0,0.0,0.0,0.0,0.0,0.0,0.0,0.0,0.0,0.0,0.0,False,0,2057
-1.006500005722046,-0.020495999604463577,0.19397999346256256,1.277500033378601,-2.546250104904175,1.3387500047683716,-0.16086000204086304,-0.056140001863241196,-0.3516800105571747,0.0,0.0,0.0,0.0,0.0,0.0,False,0,2077
0.0,0.0,0.0,0.0,0.0,0.0,0.0,0.0,0.0,-0.0224609375,0.9697265625,0.2197265625,0.0,0.0,0.0,False,0,2078
0.0,0.0,0.0,0.0,0.0,0.0,0.0,0.0,0.0,0.0,0.0,0.0,0.0,0.0,0.0,False,0,2075
-0.9889319539070129,-0.020495999604463577,0.19617599248886108,1.3562500476837158,-2.1524999141693115,1.347499966621399,-0.16478000581264496,-0.05726000294089317,-0.35882002115249634,0.0,0.0,0.0,0.0,0.0,0.0,False,0,2094
0.0,0.0,0.0,0.0,0.0,0.0,0.0,0.0,0.0,-0.017578125,0.98193359375,0.21630859375,0.0,0.0,0.0,False,0,2095
0.0,0.0,0.0,0.0,0.0,0.0,0.0,0.0,0.0,0.0,0.0,0.0,0.0,0.0,0.0,False,0,2092
-0.9896639585494995,-0.015371999703347683,0.18665999174118042,1.5137499570846558,-2.432500123977661,1.2949999570846558,-0.16449999809265137,-0.05795999988913536,-0.35728001594543457,0.0,0.0,0.0,0.0,0.0,0.0,False,0,2112
0.0,0.0,0.0,0.0,0.0,0.0,0.0,0.0,0.0,0.0,0.98681640625,0.20703125,0.0,0.0,0.0,False,0,2113
0.0,0.0,0.0,0.0,0.0,0.0,0.0,0.0,0.0,0.0,0.0,0.0,0.0,0.0,0.0,False,0,2110
-0.9830759763717651,-0.0226919986307621,0.1815359890460968,1.7324999570846558,-2.694999933242798,1.3125,-0.162540003657341,-0.06216000020503998,-0.35280001163482666,0.0,0.0,0.0,0.0,0.0,0.0,False,0,2129
0.0,0.0,0.0,0.0,0.0,0.0,0.0,0.0,0.0,0.00830078125,0.99658203125,0.20361328125,0.0,0.0,0.0,False,0,2130
0.0,0.0,0.0,0.0,0.0,0.0,0.0,0.0,0.0,0.0,0.0,0.0,0.0,0.0,0.0,False,0,2127
-0.994055986404419,-0.0226919986307621,0.17421600222587585,1.7675000429153442,-2.5637500286102295,1.4262499809265137,-0.1580599993467331,-0.05754000321030617,-0.3512600064277649,0.0,0.0,0.0,0.0,0.0,0.0,False,0,2146
0.0,0.0,0.0,0.0,0.0,0.0,0.0,0.0,0.0,-0.0107421875,0.98583984375,0.1982421875,0.0,0.0,0.0,False,0,2147
0.0,0.0,0.0,0.0,0.0,0.0,0.0,0.0,0.0,0.0,0.0,0.0,0.0,0.0,0.0,False,0,2144
-0.986735999584198,-0.010247999802231789,0.187391996383667,1.408750057220459,-2.3450000286102295,1.3387500047683716,-0.16128000617027283,-0.05530000105500221,-0.34888002276420593,0.0,0.0,0.0,0.0,0.0,0.0,False,0,2164
0.0,0.0,0.0,0.0,0.0,0.0,0.0,0.0,0.0,0.0009765625,0.98046875,0.2109375,0.0,0.0,0.0,False,0,2165
0.0,0.0,0.0,0.0,0.0,0.0,0.0,0.0,0.0,0.0,0.0,0.0,0.0,0.0,0.0,False,0,2162
-0.9903959631919861,-0.019763998687267303,0.2042279988527298,1.347499966621399,-2.765000104904175,1.3737499713897705,-0.16128000617027283,-0.053620003163814545,-0.3561600148677826,0.0,0.0,0.0,0.0,0.0,0.0,False,0,2181
0.0,0.0,0.0,0.0,0.0,0.0,0.0,0.0,0.0,-0.0048828125,0.9755859375,0.22705078125,0.0,0.0,0.0,False,0,2182
0.0,0.0,0.0,0.0,0.0,0.0,0.0,0.0,0.0,0.0,0.0,0.0,0.0,0.0,0.0,False,0,2179
-0.9903959631919861,-0.015371999703347683,0.17933999001979828,1.443750023841858,-2.528749942779541,1.3037500381469727,-0.1632400006055832,-0.05558000132441521,-0.35812002420425415,0.0,0.0,0.0,0.0,0.0,0.0,False,0,2199
0.0,0.0,0.0,0.0,0.0,0.0,0.0,0.0,0.0,-0.01220703125,0.9736328125,0.22119140625,0.0,0.0,0.0,False,0,2200
0.0,0.0,0.0,0.0,0.0,0.0,0.0,0.0,0.0,0.0,0.0,0.0,0.0,0.0,0.0,False,0,2197
-0.9969840049743652,-0.016103999689221382,0.18519599735736847,1.6712499856948853,-2.555000066757202,1.496250033378601,-0.15442000329494476,-0.054740000516176224,-0.35756000876426697,0.0,0.0,0.0,0.0,0.0,0.0,False,0,2216
0.0,0.0,0.0,0.0,0.0,0.0,0.0,0.0,0.0,-0.02783203125,0.978515625,0.236328125,0.0,0.0,0.0,False,0,2217
0.0,0.0,0.0,0.0,0.0,0.0,0.0,0.0,0.0,0.0,0.0,0.0,0.0,0.0,0.0,False,0,2214
-1.007964015007019,-0.018300000578165054,0.17641200125217438,1.6537500619888306,-2.4149999618530273,1.3212499618530273,-0.15904000401496887,-0.05180000141263008,-0.35798001289367676,0.0,0.0,0.0,0.0,0.0,0.0,False,0,2234
0.0,0.0,0.0,0.0,0.0,0.0,0.0,0.0,0.0,-0.0185546875,0.9931640625,0.2275390625,0.0,0.0,0.0,False,0,2235
0.0,0.0,0.0,0.0,0.0,0.0,0.0,0.0,0.0,0.0,0.0,0.0,0.0,0.0,0.0,False,0,2232
-0.9977160096168518,-0.016835998743772507,0.1815359890460968,1.5750000476837158,-2.694999933242798,1.3912500143051147,-0.15861999988555908,-0.05810000002384186,-0.3509800136089325,0.0,0.0,0.0,0.0,0.0,0.0,False,0,2252
0.0,0.0,0.0,0.0,0.0,0.0,0.0,0.0,0.0,-0.00927734375,0.98583984375,0.21875,0.0,0.0,0.0,False,0,2253
0.0,0.0,0.0,0.0,0.0,0.0,0.0,0.0,0.0,0.0,0.0,0.0,0.0,0.0,0.0,False,0,2250
-0.9860039949417114,-0.015371999703347683,0.19471199810504913,1.566249966621399,-2.703749895095825,1.3650000095367432,-0.15330000221729279,-0.0560000017285347,-0.35238000750541687,0.0,0.0,0.0,0.0,0.0,0.0,False,0,2269
0.0,0.0,0.0,0.0,0.0,0.0,0.0,0.0,0.0,-0.0048828125,0.99267578125,0.22216796875,0.0,0.0,0.0,False,0,2270
0.0,0.0,0.0,0.0,0.0,0.0,0.0,0.0,0.0,0.0,0.0,0.0,0.0,0.0,0.0,False,0,2267
-0.9955199956893921,-0.019763998687267303,0.18519599735736847,1.6800000667572021,-2.6424999237060547,1.3650000095367432,-0.15554000437259674,-0.055720001459121704,-0.3546200096607208,0.0,0.0,0.0,0.0,0.0,0.0,False,0,2287
0.0,0.0,0.0,0.0,0.0,0.0,0.0,0.0,0.0,-0.00732421875,0.98779296875,0.22412109375,0.0,0.0,0.0,False,0,2288
0.0,0.0,0.0,0.0,0.0,0.0,0.0,0.0,0.0,0.0,0.0,0.0,0.0,0.0,0.0,False,0,2285
-0.986735999584198,-0.01903199963271618,0.18812400102615356,1.399999976158142,-2.7562499046325684,1.2512500286102295,-0.15330000221729279,-0.057120002806186676,-0.3561600148677826,0.0,0.0,0.0,0.0,0.0,0.0,False,0,2304
0.0,0.0,0.0,0.0,0.0,0.0,0.0,0.0,0.0,0.0166015625,1.01904296875,0.18798828125,0.0,0.0,0.0,False,0,2305
0.0,0.0,0.0,0.0,0.0,0.0,0.0,0.0,0.0,0.0,0.0,0.0,0.0,0.0,0.0,False,0,2302
-0.9903959631919861,-0.02122800052165985,0.18007199466228485,1.3912500143051147,-2.309999942779541,1.3737499713897705,-0.1573600023984909,-0.05348000302910805,-0.3512600064277649,0.0,0.0,0.0,0.0,0.0,0.0,False,0,2321
0.0,0.0,0.0,0.0,0.0,0.0,0.0,0.0,0.0,0.01220703125,1.0087890625,0.2041015625,0.0,0.0,0.0,False,0,2322
0.0,0.0,0.0,0.0,0.0,0.0,0.0,0.0,0.0,0.0,0.0,0.0,0.0,0.0,0.0,False,0,2319
-0.9947879910469055,-0.013175999745726585,0.17641200125217438,1.7587499618530273,-2.283750057220459,1.3650000095367432,-0.16072000563144684,-0.053620003163814545,-0.3547600209712982,0.0,0.0,0.0,0.0,0.0,0.0,False,0,2339
0.0,0.0,0.0,0.0,0.0,0.0,0.0,0.0,0.0,0.0078125,1.009765625,0.205078125,0.0,0.0,0.0,False,0,2340
0.0,0.0,0.0,0.0,0.0,0.0,0.0,0.0,0.0,0.0,0.0,0.0,0.0,0.0,0.0,False,0,2337
-0.994055986404419,-0.01756799966096878,0.18592800199985504,2.0037500858306885,-2.581249952316284,1.3037500381469727,-0.16114000976085663,-0.05124000087380409,-0.3565800189971924,0.0,0.0,0.0,0.0,0.0,0.0,False,0,2356
0.0,0.0,0.0,0.0,0.0,0.0,0.0,0.0,0.0,-0.01025390625,1.00830078125,0.21240234375,0.0,0.0,0.0,False,0,2357
0.0,0.0,0.0,0.0,0.0,0.0,0.0,0.0,0.0,0.0,0.0,0.0,0.0,0.0,0.0,False,0,2354
-0.9896639585494995,-0.016103999689221382,0.1844639927148819,1.8025000095367432,-2.362499952316284,1.4350000619888306,-0.1628200113773346,-0.056700002402067184,-0.34929999709129333,0.0,0.0,0.0,0.0,0.0,0.0,False,0,2373
0.0,0.0,0.0,0.0,0.0,0.0,0.0,0.0,0.0,-0.009765625,0.99462890625,0.2109375,0.0,0.0,0.0,False,0,2374
0.0,0.0,0.0,0.0,0.0,0.0,0.0,0.0,0.0,0.0,0.0,0.0,0.0,0.0,0.0,False,0,2371
-0.9845399856567383,-0.013175999745726585,0.19910399615764618,1.5049999952316284,-2.40625,1.3562500476837158,-0.15330000221729279,-0.050119999796152115,-0.35406002402305603,0.0,0.0,0.0,0.0,0.0,0.0,False,0,2391
0.0,0.0,0.0,0.0,0.0,0.0,0.0,0.0,0.0,-0.00390625,0.9873046875,0.208984375,0.0,0.0,0.0,False,0,2392
0.0,0.0,0.0,0.0,0.0,0.0,0.0,0.0,0.0,0.0,0.0,0.0,0.0,0.0,0.0,False,0,2389
-0.9984479546546936,-0.018300000578165054,0.1815359890460968,1.5575000047683716,-2.6337499618530273,1.3825000524520874,-0.15554000437259674,-0.05642000213265419,-0.35350000858306885,0.0,0.0,0.0,0.0,0.0,0.0,False,0,2408
0.0,0.0,0.0,0.0,0.0,0.0,0.0,0.0,0.0,0.0068359375,0.982421875,0.2041015625,0.0,0.0,0.0,False,0,2409
0.0,0.0,0.0,0.0,0.0,0.0,0.0,0.0,0.0,0.0,0.0,0.0,0.0,0.0,0.0,False,0,2406
-0.994055986404419,-0.015371999703347683,0.18812400102615356,1.6800000667572021,-2.5112500190734863,1.347499966621399,-0.16043999791145325,-0.05460000038146973,-0.3514000177383423,0.0,0.0,0.0,0.0,0.0,0.0,False,0,2426
0.0,0.0,0.0,0.0,0.0,0.0,0.0,0.0,0.0,0.01416015625,0.990234375,0.20458984375,0.0,0.0,0.0,False,0,2427
0.0,0.0,0.0,0.0,0.0,0.0,0.0,0.0,0.0,0.0,0.0,0.0,0.0,0.0,0.0,False,0,2424
-0.994055986404419,-0.015371999703347683,0.18958799540996552,1.4524999856948853,-2.598750114440918,1.3737499713897705,-0.15455999970436096,-0.05740000307559967,-0.34341999888420105,0.0,0.0,0.0,0.0,0.0,0.0,False,0,2443
0.0,0.0,0.0,0.0,0.0,0.0,0.0,0.0,0.0,0.017578125,0.9951171875,0.20166015625,0.0,0.0,0.0,False,0,2444
0.0,0.0,0.0,0.0,0.0,0.0,0.0,0.0,0.0,0.0,0.0,0.0,0.0,0.0,0.0,False,0,2441
-0.9947879910469055,-0.016103999689221382,0.1786080002784729,1.8550000190734863,-2.773750066757202,1.399999976158142,-0.16366000473499298,-0.0609000027179718,-0.34356001019477844,0.0,0.0,0.0,0.0,0.0,0.0,False,0,2460
0.0,0.0,0.0,0.0,0.0,0.0,0.0,0.0,0.0,-0.005859375,0.98828125,0.2021484375,0.0,0.0,0.0,False,0,2461
0.0,0.0,0.0,0.0,0.0,0.0,0.0,0.0,0.0,0.0,0.0,0.0,0.0,0.0,0.0,False,0,2458
-0.9903959631919861,-0.0226919986307621,0.18226799368858337,1.6449999809265137,-2.4412500858306885,1.3650000095367432,-0.15666000545024872,-0.05558000132441521,-0.35420000553131104,0.0,0.0,0.0,0.0,0.0,0.0,False,0,2478
0.0,0.0,0.0,0.0,0.0,0.0,0.0,0.0,0.0,0.0126953125,0.99658203125,0.21044921875,0.0,0.0,0.0,False,0,2479
0.0,0.0,0.0,0.0,0.0,0.0,0.0,0.0,0.0,0.0,0.0,0.0,0.0,0.0,0.0,False,0,2476
-0.9911279678344727,-0.01903199963271618,0.18958799540996552,1.3037500381469727,-2.4412500858306885,1.3387500047683716,-0.15918000042438507,-0.05460000038146973,-0.35392001271247864,0.0,0.0,0.0,0.0,0.0,0.0,False,0,2495
0.0,0.0,0.0,0.0,0.0,0.0,0.0,0.0,0.0,0.033203125,0.99169921875,0.21728515625,0.0,0.0,0.0,False,0,2496
0.0,0.0,0.0,0.0,0.0,0.0,0.0,0.0,0.0,0.0,0.0,0.0,0.0,0.0,0.0,False,0,2493
-0.9889319539070129,-0.01903199963271618,0.18665999174118042,1.3650000095367432,-2.7125000953674316,1.3212499618530273,-0.16016000509262085,-0.055160000920295715,-0.3557400107383728,0.0,0.0,0.0,0.0,0.0,0.0,False,0,2513
0.0,0.0,0.0,0.0,0.0,0.0,0.0,0.0,0.0,0.005859375,0.99169921875,0.2158203125,0.0,0.0,0.0,False,0,2514
0.0,0.0,0.0,0.0,0.0,0.0,0.0,0.0,0.0,0.0,0.0,0.0,0.0,0.0,0.0,False,0,2511
-0.9911279678344727,-0.016835998743772507,0.17348399758338928,1.6712499856948853,-2.703749895095825,1.4350000619888306,-0.16058000922203064,-0.05866000056266785,-0.3465000092983246,0.0,0.0,0.0,0.0,0.0,0.0,False,0,2530
0.0,0.0,0.0,0.0,0.0,0.0,0.0,0.0,0.0,-0.0048828125,0.994140625,0.20654296875,0.0,0.0,0.0,False,0,2531
0.0,0.0,0.0,0.0,0.0,0.0,0.0,0.0,0.0,0.0,0.0,0.0,0.0,0.0,0.0,False,0,2528
-0.9999119639396667,-0.014639999717473984,0.1925159990787506,1.5399999618530273,-2.4674999713897705,1.277500033378601,-0.16099999845027924,-0.06062000244855881,-0.3420200049877167,0.0,0.0,0.0,0.0,0.0,0.0,False,0,2547
0.0,0.0,0.0,0.0,0.0,0.0,0.0,0.0,0.0,-0.00244140625,0.98828125,0.19775390625,0.0,0.0,0.0,False,0,2548
0.0,0.0,0.0,0.0,0.0,0.0,0.0,0.0,0.0,0.0,0.0,0.0,0.0,0.0,0.0,False,0,2545
-0.9962520003318787,-0.024887999519705772,0.1903200000524521,1.408750057220459,-2.694999933242798,1.3737499713897705,-0.1572200059890747,-0.058240000158548355,-0.34874001145362854,0.0,0.0,0.0,0.0,0.0,0.0,False,0,2565
0.0,0.0,0.0,0.0,0.0,0.0,0.0,0.0,0.0,-0.00390625,0.984375,0.20556640625,0.0,0.0,0.0,False,0,2566
0.0,0.0,0.0,0.0,0.0,0.0,0.0,0.0,0.0,0.0,0.0,0.0,0.0,0.0,0.0,False,0,2563
-0.994055986404419,-0.020495999604463577,0.1844639927148819,1.5225000381469727,-2.7387499809265137,1.3737499713897705,-0.1580599993467331,-0.05992000177502632,-0.3409000039100647,0.0,0.0,0.0,0.0,0.0,0.0,False,0,2582
0.0,0.0,0.0,0.0,0.0,0.0,0.0,0.0,0.0,-0.01318359375,0.9873046875,0.20166015625,0.0,0.0,0.0,False,0,2583
0.0,0.0,0.0,0.0,0.0,0.0,0.0,0.0,0.0,0.0,0.0,0.0,0.0,0.0,0.0,False,0,2580
-0.9991799592971802,-0.016835998743772507,0.18373200297355652,1.496250033378601,-2.528749942779541,1.3387500047683716,-0.15987999737262726,-0.05334000289440155,-0.34888002276420593,0.0,0.0,0.0,0.0,0.0,0.0,False,0,2600
0.0,0.0,0.0,0.0,0.0,0.0,0.0,0.0,0.0,-0.0185546875,0.99462890625,0.20166015625,0.0,0.0,0.0,False,0,2601
0.0,0.0,0.0,0.0,0.0,0.0,0.0,0.0,0.0,0.0,0.0,0.0,0.0,0.0,0.0,False,0,2598
-0.9911279678344727,-0.016103999689221382,0.1925159990787506,1.4612499475479126,-2.502500057220459,1.3212499618530273,-0.15610000491142273,-0.05460000038146973,-0.35447999835014343,0.0,0.0,0.0,0.0,0.0,0.0,False,0,2617
0.0,0.0,0.0,0.0,0.0,0.0,0.0,0.0,0.0,-0.00244140625,1.0009765625,0.20751953125,0.0,0.0,0.0,False,0,2618
0.0,0.0,0.0,0.0,0.0,0.0,0.0,0.0,0.0,0.0,0.0,0.0,0.0,0.0,0.0,False,0,2615
-0.9918599724769592,-0.013175999745726585,0.19178399443626404,1.4874999523162842,-2.5899999141693115,1.4524999856948853,-0.16086000204086304,-0.05222000181674957,-0.3515399992465973,0.0,0.0,0.0,0.0,0.0,0.0,False,0,2634
0.0,0.0,0.0,0.0,0.0,0.0,0.0,0.0,0.0,-0.01025390625,0.9921875,0.21630859375,0.0,0.0,0.0,False,0,2635
0.0,0.0,0.0,0.0,0.0,0.0,0.0,0.0,0.0,0.0,0.0,0.0,0.0,0.0,0.0,False,0,2632
-0.9933239817619324,-0.019763998687267303,0.18299999833106995,1.5225000381469727,-2.3012499809265137,1.3212499618530273,-0.15890000760555267,-0.06062000244855881,-0.35392001271247864,0.0,0.0,0.0,0.0,0.0,0.0,False,0,2652
0.0,0.0,0.0,0.0,0.0,0.0,0.0,0.0,0.0,-0.01318359375,0.9814453125,0.22265625,0.0,0.0,0.0,False,0,2653
0.0,0.0,0.0,0.0,0.0,0.0,0.0,0.0,0.0,0.0,0.0,0.0,0.0,0.0,0.0,False,0,2650
-0.9882000088691711,-0.015371999703347683,0.18665999174118042,1.5575000047683716,-2.625,1.4612499475479126,-0.15848000347614288,-0.053620003163814545,-0.3502800166606903,0.0,0.0,0.0,0.0,0.0,0.0,False,0,2669
0.0,0.0,0.0,0.0,0.0,0.0,0.0,0.0,0.0,-0.00048828125,0.99755859375,0.21484375,0.0,0.0,0.0,False,0,2670
0.0,0.0,0.0,0.0,0.0,0.0,0.0,0.0,0.0,0.0,0.0,0.0,0.0,0.0,0.0,False,0,2667
-0.9911279678344727,-0.0226919986307621,0.18958799540996552,1.6800000667572021,-2.458750009536743,1.2599999904632568,-0.16155999898910522,-0.05754000321030617,-0.3470599949359894,0.0,0.0,0.0,0.0,0.0,0.0,False,0,2687
0.0,0.0,0.0,0.0,0.0,0.0,0.0,0.0,0.0,-0.005859375,1.00048828125,0.21826171875,0.0,0.0,0.0,False,0,2688
0.0,0.0,0.0,0.0,0.0,0.0,0.0,0.0,0.0,0.0,0.0,0.0,0.0,0.0,0.0,False,0,2685
-0.9991799592971802,-0.0226919986307621,0.18226799368858337,1.618749976158142,-2.598750114440918,1.3212499618530273,-0.15624000132083893,-0.05936000123620033,-0.34426000714302063,0.0,0.0,0.0,0.0,0.0,0.0,False,0,2704
0.0,0.0,0.0,0.0,0.0,0.0,0.0,0.0,0.0,-0.0087890625,0.99169921875,0.2216796875,0.0,0.0,0.0,False,0,2705
0.0,0.0,0.0,0.0,0.0,0.0,0.0,0.0,0.0,0.0,0.0,0.0,0.0,0.0,0.0,False,0,2702
-0.9947879910469055,-0.016103999689221382,0.17128799855709076,1.4700000286102295,-2.476249933242798,1.3650000095367432,-0.15666000545024872,-0.05348000302910805,-0.35294002294540405,0.0,0.0,0.0,0.0,0.0,0.0,False,0,2721
0.0,0.0,0.0,0.0,0.0,0.0,0.0,0.0,0.0,-0.0068359375,0.99462890625,0.21630859375,0.0,0.0,0.0,False,0,2722
0.0,0.0,0.0,0.0,0.0,0.0,0.0,0.0,0.0,0.0,0.0,0.0,0.0,0.0,0.0,False,0,2719
-0.9947879910469055,-0.016103999689221382,0.20349599421024323,1.399999976158142,-2.257499933242798,1.2687499523162842,-0.15876001119613647,-0.05502000078558922,-0.35392001271247864,0.0,0.0,0.0,0.0,0.0,0.0,False,0,2740
0.0,0.0,0.0,0.0,0.0,0.0,0.0,0.0,0.0,-0.005859375,1.0029296875,0.205078125,0.0,0.0,0.0,False,0,2741
0.0,0.0,0.0,0.0,0.0,0.0,0.0,0.0,0.0,0.0,0.0,0.0,0.0,0.0,0.0,False,0,2738
-0.994055986404419,-0.015371999703347683,0.18812400102615356,1.5750000476837158,-2.668750047683716,1.3300000429153442,-0.15540000796318054,-0.0558600015938282,-0.3509800136089325,0.0,0.0,0.0,0.0,0.0,0.0,False,0,2757
0.0,0.0,0.0,0.0,0.0,0.0,0.0,0.0,0.0,-0.0068359375,1.00537109375,0.201171875,0.0,0.0,0.0,False,0,2758
0.0,0.0,0.0,0.0,0.0,0.0,0.0,0.0,0.0,0.0,0.0,0.0,0.0,0.0,0.0,False,0,2755
-0.9947879910469055,-0.016103999689221382,0.1844639927148819,1.627500057220459,-2.5637500286102295,1.4787499904632568,-0.15554000437259674,-0.05936000123620033,-0.3507000207901001,0.0,0.0,0.0,0.0,0.0,0.0,False,0,2775
0.0,0.0,0.0,0.0,0.0,0.0,0.0,0.0,0.0,0.00439453125,1.001953125,0.19970703125,0.0,0.0,0.0,False,0,2776
0.0,0.0,0.0,0.0,0.0,0.0,0.0,0.0,0.0,0.0,0.0,0.0,0.0,0.0,0.0,False,0,2773
-0.9962520003318787,-0.02122800052165985,0.18812400102615356,1.715000033378601,-2.266249895095825,1.3212499618530273,-0.15610000491142273,-0.05375999957323074,-0.3500000238418579,0.0,0.0,0.0,0.0,0.0,0.0,False,0,2792
0.0,0.0,0.0,0.0,0.0,0.0,0.0,0.0,0.0,-0.00830078125,0.9833984375,0.20849609375,0.0,0.0,0.0,False,0,2793
0.0,0.0,0.0,0.0,0.0,0.0,0.0,0.0,0.0,0.0,0.0,0.0,0.0,0.0,0.0,False,0,2790
-0.986735999584198,-0.010247999802231789,0.19105198979377747,1.715000033378601,-2.6337499618530273,1.347499966621399,-0.15890000760555267,-0.054740000516176224,-0.3494400084018707,0.0,0.0,0.0,0.0,0.0,0.0,False,0,2809
0.0,0.0,0.0,0.0,0.0,0.0,0.0,0.0,0.0,-0.0078125,0.97021484375,0.216796875,0.0,0.0,0.0,False,0,2810
0.0,0.0,0.0,0.0,0.0,0.0,0.0,0.0,0.0,0.0,0.0,0.0,0.0,0.0,0.0,False,0,2807
-0.9969840049743652,-0.010979999788105488,0.18007199466228485,1.627500057220459,-2.546250104904175,1.3037500381469727,-0.15568000078201294,-0.0558600015938282,-0.3509800136089325,0.0,0.0,0.0,0.0,0.0,0.0,False,0,2829
0.0,0.0,0.0,0.0,0.0,0.0,0.0,0.0,0.0,-0.0107421875,0.97119140625,0.2080078125,0.0,0.0,0.0,False,0,2830
0.0,0.0,0.0,0.0,0.0,0.0,0.0,0.0,0.0,0.0,0.0,0.0,0.0,0.0,0.0,False,0,2827
-0.9860039949417114,-0.016103999689221382,0.17714399099349976,1.5487500429153442,-2.476249933242798,1.3212499618530273,-0.15386000275611877,-0.05432000011205673,-0.3605000078678131,0.0,0.0,0.0,0.0,0.0,0.0,False,0,2846
0.0,0.0,0.0,0.0,0.0,0.0,0.0,0.0,0.0,-0.005859375,0.99658203125,0.19677734375,0.0,0.0,0.0,False,0,2847
0.0,0.0,0.0,0.0,0.0,0.0,0.0,0.0,0.0,0.0,0.0,0.0,0.0,0.0,0.0,False,0,2844
-0.9882000088691711,-0.021959999576210976,0.18007199466228485,1.6537500619888306,-2.327500104904175,1.3825000524520874,-0.15358000993728638,-0.05236000195145607,-0.3519600033760071,0.0,0.0,0.0,0.0,0.0,0.0,False,0,2864
0.0,0.0,0.0,0.0,0.0,0.0,0.0,0.0,0.0,-0.01953125,1.00244140625,0.1962890625,0.0,0.0,0.0,False,0,2865
0.0,0.0,0.0,0.0,0.0,0.0,0.0,0.0,0.0,0.0,0.0,0.0,0.0,0.0,0.0,False,0,2862
-0.994055986404419,-0.013175999745726585,0.18373200297355652,1.347499966621399,-2.8612499237060547,1.4175000190734863,-0.15175999701023102,-0.052640002220869064,-0.34790000319480896,0.0,0.0,0.0,0.0,0.0,0.0,False,0,2881
0.0,0.0,0.0,0.0,0.0,0.0,0.0,0.0,0.0,-0.01220703125,1.009765625,0.18408203125,0.0,0.0,0.0,False,0,2882
0.0,0.0,0.0,0.0,0.0,0.0,0.0,0.0,0.0,0.0,0.0,0.0,0.0,0.0,0.0,False,0,2879
-0.9896639585494995,-0.014639999717473984,0.1786080002784729,1.5137499570846558,-2.581249952316284,1.1987500190734863,-0.15820001065731049,-0.0508200004696846,-0.3494400084018707,0.0,0.0,0.0,0.0,0.0,0.0,False,0,2898
0.0,0.0,0.0,0.0,0.0,0.0,0.0,0.0,0.0,-0.00048828125,0.998046875,0.18701171875,0.0,0.0,0.0,False,0,2899
0.0,0.0,0.0,0.0,0.0,0.0,0.0,0.0,0.0,0.0,0.0,0.0,0.0,0.0,0.0,False,0,2896
-0.9969840049743652,-0.01903199963271618,0.18226799368858337,1.715000033378601,-2.2049999237060547,1.3737499713897705,-0.15834000706672668,-0.05138000100851059,-0.3518200218677521,0.0,0.0,0.0,0.0,0.0,0.0,False,0,2916
0.0,0.0,0.0,0.0,0.0,0.0,0.0,0.0,0.0,0.015625,0.99560546875,0.1904296875,0.0,0.0,0.0,False,0,2917
0.0,0.0,0.0,0.0,0.0,0.0,0.0,0.0,0.0,0.0,0.0,0.0,0.0,0.0,0.0,False,0,2914
-0.9903959631919861,-0.012443999759852886,0.19105198979377747,1.7237499952316284,-2.450000047683716,1.2687499523162842,-0.15861999988555908,-0.05320000275969505,-0.3509800136089325,0.0,0.0,0.0,0.0,0.0,0.0,False,0,2933
0.0,0.0,0.0,0.0,0.0,0.0,0.0,0.0,0.0,0.0234375,0.99853515625,0.23046875,0.0,0.0,0.0,False,0,2934
0.0,0.0,0.0,0.0,0.0,0.0,0.0,0.0,0.0,0.0,0.0,0.0,0.0,0.0,0.0,False,0,2931
-0.9903959631919861,-0.011711999773979187,0.18812400102615356,1.7062499523162842,-2.6162500381469727,1.3387500047683716,-0.16155999898910522,-0.051660001277923584,-0.34804001450538635,0.0,0.0,0.0,0.0,0.0,0.0,False,0,2951
0.0,0.0,0.0,0.0,0.0,0.0,0.0,0.0,0.0,-0.0087890625,0.97412109375,0.2197265625,0.0,0.0,0.0,False,0,2952
0.0,0.0,0.0,0.0,0.0,0.0,0.0,0.0,0.0,0.0,0.0,0.0,0.0,0.0,0.0,False,0,2949
-0.9903959631919861,-0.032207999378442764,0.18007199466228485,1.53125,-2.6162500381469727,1.1549999713897705,-0.16016000509262085,-0.05866000056266785,-0.3514000177383423,0.0,0.0,0.0,0.0,0.0,0.0,False,0,2968
0.0,0.0,0.0,0.0,0.0,0.0,0.0,0.0,0.0,-0.01708984375,0.97265625,0.2197265625,0.0,0.0,0.0,False,0,2969
0.0,0.0,0.0,0.0,0.0,0.0,0.0,0.0,0.0,0.0,0.0,0.0,0.0,0.0,0.0,False,0,2966
-0.9933239817619324,-0.013907999731600285,0.187391996383667,1.2337499856948853,-2.4937500953674316,1.225000023841858,-0.16142000257968903,-0.0609000027179718,-0.34846001863479614,0.0,0.0,0.0,0.0,0.0,0.0,False,0,2985
0.0,0.0,0.0,0.0,0.0,0.0,0.0,0.0,0.0,0.02734375,1.0087890625,0.22802734375,0.0,0.0,0.0,False,0,2986
0.0,0.0,0.0,0.0,0.0,0.0,0.0,0.0,0.0,0.0,0.0,0.0,0.0,0.0,0.0,False,0,2983
-0.9969840049743652,-0.01903199963271618,0.18958799540996552,1.6537500619888306,-2.581249952316284,1.3650000095367432,-0.15931999683380127,-0.05740000307559967,-0.34356001019477844,0.0,0.0,0.0,0.0,0.0,0.0,False,0,3003
0.0,0.0,0.0,0.0,0.0,0.0,0.0,0.0,0.0,0.0068359375,0.98486328125,0.2138671875,0.0,0.0,0.0,False,0,3004
0.0,0.0,0.0,0.0,0.0,0.0,0.0,0.0,0.0,0.0,0.0,0.0,0.0,0.0,0.0,False,0,3001
-0.994055986404419,-0.016835998743772507,0.1954440027475357,1.4262499809265137,-2.4937500953674316,1.3300000429153442,-0.1632400006055832,-0.057819999754428864,-0.3522399961948395,0.0,0.0,0.0,0.0,0.0,0.0,False,0,3020
0.0,0.0,0.0,0.0,0.0,0.0,0.0,0.0,0.0,0.0107421875,0.9560546875,0.21484375,0.0,0.0,0.0,False,0,3021
0.0,0.0,0.0,0.0,0.0,0.0,0.0,0.0,0.0,0.0,0.0,0.0,0.0,0.0,0.0,False,0,3018
-0.9925919771194458,-0.01756799966096878,0.1903200000524521,1.4524999856948853,-2.651250123977661,1.225000023841858,-0.16505999863147736,-0.057120002806186676,-0.3511199951171875,0.0,0.0,0.0,0.0,0.0,0.0,False,0,3038
0.0,0.0,0.0,0.0,0.0,0.0,0.0,0.0,0.0,-0.0009765625,0.9794921875,0.21044921875,0.0,0.0,0.0,False,0,3039
0.0,0.0,0.0,0.0,0.0,0.0,0.0,0.0,0.0,0.0,0.0,0.0,0.0,0.0,0.0,False,0,3036
-0.9918599724769592,-0.012443999759852886,0.1954440027475357,1.5837500095367432,-2.528749942779541,1.4700000286102295,-0.16155999898910522,-0.05628000199794769,-0.34860000014305115,0.0,0.0,0.0,0.0,0.0,0.0,False,0,3055
0.0,0.0,0.0,0.0,0.0,0.0,0.0,0.0,0.0,-0.0048828125,1.001953125,0.20458984375,0.0,0.0,0.0,False,0,3056
0.0,0.0,0.0,0.0,0.0,0.0,0.0,0.0,0.0,0.0,0.0,0.0,0.0,0.0,0.0,False,0,3053
-0.994055986404419,-0.020495999604463577,0.18519599735736847,1.618749976158142,-2.6162500381469727,1.5487500429153442,-0.16086000204086304,-0.05866000056266785,-0.3504199981689453,0.0,0.0,0.0,0.0,0.0,0.0,False,0,3072
0.0,0.0,0.0,0.0,0.0,0.0,0.0,0.0,0.0,0.00048828125,0.9951171875,0.2001953125,0.0,0.0,0.0,False,0,3073
0.0,0.0,0.0,0.0,0.0,0.0,0.0,0.0,0.0,0.0,0.0,0.0,0.0,0.0,0.0,False,0,3070
-0.9911279678344727,-0.01903199963271618,0.1954440027475357,1.6362500190734863,-2.7387499809265137,1.4350000619888306,-0.15610000491142273,-0.05698000267148018,-0.3495800197124481,0.0,0.0,0.0,0.0,0.0,0.0,False,0,3090
0.0,0.0,0.0,0.0,0.0,0.0,0.0,0.0,0.0,0.0166015625,1.00634765625,0.201171875,0.0,0.0,0.0,False,0,3091
0.0,0.0,0.0,0.0,0.0,0.0,0.0,0.0,0.0,0.0,0.0,0.0,0.0,0.0,0.0,False,0,3088
-0.9984479546546936,-0.018300000578165054,0.18519599735736847,1.6887500286102295,-2.6424999237060547,1.3125,-0.16114000976085663,-0.0558600015938282,-0.34874001145362854,0.0,0.0,0.0,0.0,0.0,0.0,False,0,3107
0.0,0.0,0.0,0.0,0.0,0.0,0.0,0.0,0.0,0.01806640625,0.994140625,0.21337890625,0.0,0.0,0.0,False,0,3108
0.0,0.0,0.0,0.0,0.0,0.0,0.0,0.0,0.0,0.0,0.0,0.0,0.0,0.0,0.0,False,0,3105
-0.9911279678344727,-0.013907999731600285,0.18665999174118042,1.6100000143051147,-2.3712499141693115,1.408750057220459,-0.1570800095796585,-0.056700002402067184,-0.3511199951171875,0.0,0.0,0.0,0.0,0.0,0.0,False,0,3125
0.0,0.0,0.0,0.0,0.0,0.0,0.0,0.0,0.0,0.00927734375,0.978515625,0.21142578125,0.0,0.0,0.0,False,0,3126
0.0,0.0,0.0,0.0,0.0,0.0,0.0,0.0,0.0,0.0,0.0,0.0,0.0,0.0,0.0,False,0,3123
-0.9925919771194458,-0.014639999717473984,0.1925159990787506,1.6887500286102295,-2.5112500190734863,1.3562500476837158,-0.15652000904083252,-0.05964000150561333,-0.3546200096607208,0.0,0.0,0.0,0.0,0.0,0.0,False,0,3142
0.0,0.0,0.0,0.0,0.0,0.0,0.0,0.0,0.0,-0.0078125,0.9697265625,0.2333984375,0.0,0.0,0.0,False,0,3143
0.0,0.0,0.0,0.0,0.0,0.0,0.0,0.0,0.0,0.0,0.0,0.0,0.0,0.0,0.0,False,0,3140
-0.9999119639396667,-0.016103999689221382,0.19178399443626404,1.846250057220459,-2.546250104904175,1.5137499570846558,-0.16380000114440918,-0.05740000307559967,-0.3452399969100952,0.0,0.0,0.0,0.0,0.0,0.0,False,0,3159
0.0,0.0,0.0,0.0,0.0,0.0,0.0,0.0,0.0,-0.02099609375,0.98486328125,0.22119140625,0.0,0.0,0.0,False,0,3160
0.0,0.0,0.0,0.0,0.0,0.0,0.0,0.0,0.0,0.0,0.0,0.0,0.0,0.0,0.0,False,0,3157
-0.9933239817619324,-0.019763998687267303,0.18812400102615356,1.8725000619888306,-2.1875,1.2599999904632568,-0.15918000042438507,-0.054740000516176224,-0.34817999601364136,0.0,0.0,0.0,0.0,0.0,0.0,False,0,3177
0.0,0.0,0.0,0.0,0.0,0.0,0.0,0.0,0.0,-0.02783203125,0.98876953125,0.2109375,0.0,0.0,0.0,False,0,3178
0.0,0.0,0.0,0.0,0.0,0.0,0.0,0.0,0.0,0.0,0.0,0.0,0.0,0.0,0.0,False,0,3175
-0.9874680042266846,-0.011711999773979187,0.18592800199985504,1.9075000286102295,-2.1962499618530273,1.4350000619888306,-0.16646000742912292,-0.055720001459121704,-0.34916001558303833,0.0,0.0,0.0,0.0,0.0,0.0,False,0,3194
0.0,0.0,0.0,0.0,0.0,0.0,0.0,0.0,0.0,-0.00341796875,0.99560546875,0.20703125,0.0,0.0,0.0,False,0,3195
0.0,0.0,0.0,0.0,0.0,0.0,0.0,0.0,0.0,0.0,0.0,0.0,0.0,0.0,0.0,False,0,3192
-0.9889319539070129,-0.013175999745726585,0.19105198979377747,1.6537500619888306,-2.484999895095825,1.3037500381469727,-0.16393999755382538,-0.061879999935626984,-0.3546200096607208,0.0,0.0,0.0,0.0,0.0,0.0,False,0,3212
0.0,0.0,0.0,0.0,0.0,0.0,0.0,0.0,0.0,-0.00927734375,0.98388671875,0.21044921875,0.0,0.0,0.0,False,0,3213
0.0,0.0,0.0,0.0,0.0,0.0,0.0,0.0,0.0,0.0,0.0,0.0,0.0,0.0,0.0,False,0,3210
-0.9852719902992249,-0.016103999689221382,0.1844639927148819,1.4874999523162842,-2.450000047683716,1.399999976158142,-0.16114000976085663,-0.05936000123620033,-0.3518200218677521,0.0,0.0,0.0,0.0,0.0,0.0,False,0,3229
0.0,0.0,0.0,0.0,0.0,0.0,0.0,0.0,0.0,-0.0224609375,0.966796875,0.2236328125,0.0,0.0,0.0,False,0,3230
0.0,0.0,0.0,0.0,0.0,0.0,0.0,0.0,0.0,0.0,0.0,0.0,0.0,0.0,0.0,False,0,3227
-0.9918599724769592,-0.02122800052165985,0.18665999174118042,1.5225000381469727,-2.432500123977661,1.2337499856948853,-0.1621199995279312,-0.05530000105500221,-0.3472000062465668,0.0,0.0,0.0,0.0,0.0,0.0,False,0,3246
0.0,0.0,0.0,0.0,0.0,0.0,0.0,0.0,0.0,-0.015625,0.96728515625,0.21826171875,0.0,0.0,0.0,False,0,3247
0.0,0.0,0.0,0.0,0.0,0.0,0.0,0.0,0.0,0.0,0.0,0.0,0.0,0.0,0.0,False,0,3244
-0.9933239817619324,-0.019763998687267303,0.18080399930477142,1.4175000190734863,-2.5199999809265137,1.3737499713897705,-0.15693999826908112,-0.05389999970793724,-0.3508400022983551,0.0,0.0,0.0,0.0,0.0,0.0,False,0,3264
0.0,0.0,0.0,0.0,0.0,0.0,0.0,0.0,0.0,-0.00439453125,0.9892578125,0.2197265625,0.0,0.0,0.0,False,0,3265
0.0,0.0,0.0,0.0,0.0,0.0,0.0,0.0,0.0,0.0,0.0,0.0,0.0,0.0,0.0,False,0,3262
-0.9925919771194458,-0.021959999576210976,0.1903200000524521,1.6537500619888306,-2.5637500286102295,1.3125,-0.1580599993467331,-0.05180000141263008,-0.3521000146865845,0.0,0.0,0.0,0.0,0.0,0.0,False,0,3281
0.0,0.0,0.0,0.0,0.0,0.0,0.0,0.0,0.0,-0.00634765625,0.9873046875,0.2177734375,0.0,0.0,0.0,False,0,3282
0.0,0.0,0.0,0.0,0.0,0.0,0.0,0.0,0.0,0.0,0.0,0.0,0.0,0.0,0.0,False,0,3279
-0.9882000088691711,-0.013175999745726585,0.18665999174118042,1.715000033378601,-2.6337499618530273,1.2687499523162842,-0.16155999898910522,-0.06286000460386276,-0.34272000193595886,0.0,0.0,0.0,0.0,0.0,0.0,False,0,3299
0.0,0.0,0.0,0.0,0.0,0.0,0.0,0.0,0.0,-0.02490234375,0.97802734375,0.21337890625,0.0,0.0,0.0,False,0,3300
0.0,0.0,0.0,0.0,0.0,0.0,0.0,0.0,0.0,0.0,0.0,0.0,0.0,0.0,0.0,False,0,3297
-0.9955199956893921,-0.01903199963271618,0.18373200297355652,1.715000033378601,-2.450000047683716,1.399999976158142,-0.15680000185966492,-0.057819999754428864,-0.34762001037597656,0.0,0.0,0.0,0.0,0.0,0.0,False,0,3316
0.0,0.0,0.0,0.0,0.0,0.0,0.0,0.0,0.0,-0.0087890625,0.98583984375,0.203125,0.0,0.0,0.0,False,0,3317
0.0,0.0,0.0,0.0,0.0,0.0,0.0,0.0,0.0,0.0,0.0,0.0,0.0,0.0,0.0,False,0,3314
-0.9918599724769592,-0.021959999576210976,0.18812400102615356,1.496250033378601,-2.4937500953674316,1.3825000524520874,-0.16114000976085663,-0.057680003345012665,-0.3509800136089325,0.0,0.0,0.0,0.0,0.0,0.0,False,0,3333
0.0,0.0,0.0,0.0,0.0,0.0,0.0,0.0,0.0,-0.00341796875,0.998046875,0.1943359375,0.0,0.0,0.0,False,0,3334
0.0,0.0,0.0,0.0,0.0,0.0,0.0,0.0,0.0,0.0,0.0,0.0,0.0,0.0,0.0,False,0,3331
-0.9896639585494995,-0.015371999703347683,0.19105198979377747,1.5924999713897705,-2.651250123977661,1.4350000619888306,-0.15610000491142273,-0.05698000267148018,-0.35308000445365906,0.0,0.0,0.0,0.0,0.0,0.0,False,0,3351
0.0,0.0,0.0,0.0,0.0,0.0,0.0,0.0,0.0,-0.021484375,0.9853515625,0.203125,0.0,0.0,0.0,False,0,3352
0.0,0.0,0.0,0.0,0.0,0.0,0.0,0.0,0.0,0.0,0.0,0.0,0.0,0.0,0.0,False,0,3349
-0.9838079810142517,-0.013907999731600285,0.36965999007225037,1.6537500619888306,-2.546250104904175,1.399999976158142,-0.1573600023984909,-0.053620003163814545,-0.35420000553131104,0.0,0.0,0.0,0.0,0.0,0.0,False,0,3368
0.0,0.0,0.0,0.0,0.0,0.0,0.0,0.0,0.0,-0.00390625,0.978515625,0.20849609375,0.0,0.0,0.0,False,0,3369
0.0,0.0,0.0,0.0,0.0,0.0,0.0,0.0,0.0,0.0,0.0,0.0,0.0,0.0,0.0,False,0,3366
-0.9991799592971802,-0.014639999717473984,0.18080399930477142,1.4874999523162842,-2.450000047683716,1.181249976158142,-0.15610000491142273,-0.05642000213265419,-0.34874001145362854,0.0,0.0,0.0,0.0,0.0,0.0,False,0,3386
0.0,0.0,0.0,0.0,0.0,0.0,0.0,0.0,0.0,0.0048828125,0.99169921875,0.2080078125,0.0,0.0,0.0,False,0,3387
0.0,0.0,0.0,0.0,0.0,0.0,0.0,0.0,0.0,0.0,0.0,0.0,0.0,0.0,0.0,False,0,3384
-0.9911279678344727,-0.023423999547958374,0.1676279902458191,1.6974999904632568,-2.6337499618530273,1.2949999570846558,-0.15693999826908112,-0.06370000541210175,-0.34860000014305115,0.0,0.0,0.0,0.0,0.0,0.0,False,0,3403
0.0,0.0,0.0,0.0,0.0,0.0,0.0,0.0,0.0,-0.001953125,0.9853515625,0.19091796875,0.0,0.0,0.0,False,0,3404
0.0,0.0,0.0,0.0,0.0,0.0,0.0,0.0,0.0,0.0,0.0,0.0,0.0,0.0,0.0,False,0,3401
-0.9918599724769592,-0.010979999788105488,0.18885599076747894,1.6449999809265137,-2.6424999237060547,1.2949999570846558,-0.15918000042438507,-0.06146000325679779,-0.3446800112724304,0.0,0.0,0.0,0.0,0.0,0.0,False,0,3420
0.0,0.0,0.0,0.0,0.0,0.0,0.0,0.0,0.0,-0.00439453125,1.0,0.18896484375,0.0,0.0,0.0,False,0,3421
0.0,0.0,0.0,0.0,0.0,0.0,0.0,0.0,0.0,0.0,0.0,0.0,0.0,0.0,0.0,False,0,3418
-0.9969840049743652,-0.011711999773979187,0.19324800372123718,1.7237499952316284,-2.8612499237060547,1.3037500381469727,-0.16408000886440277,-0.0609000027179718,-0.3403400182723999,0.0,0.0,0.0,0.0,0.0,0.0,False,0,3438
0.0,0.0,0.0,0.0,0.0,0.0,0.0,0.0,0.0,-0.001953125,1.00390625,0.19873046875,0.0,0.0,0.0,False,0,3439
0.0,0.0,0.0,0.0,0.0,0.0,0.0,0.0,0.0,0.0,0.0,0.0,0.0,0.0,0.0,False,0,3436
-1.0013760328292847,-0.023423999547958374,0.17933999001979828,1.496250033378601,-2.7387499809265137,1.3912500143051147,-0.1530200093984604,-0.05684000253677368,-0.3470599949359894,0.0,0.0,0.0,0.0,0.0,0.0,False,0,3455
0.0,0.0,0.0,0.0,0.0,0.0,0.0,0.0,0.0,-0.001953125,0.98779296875,0.2109375,0.0,0.0,0.0,False,0,3456
0.0,0.0,0.0,0.0,0.0,0.0,0.0,0.0,0.0,0.0,0.0,0.0,0.0,0.0,0.0,False,0,3453
-0.9947879910469055,-0.02635199949145317,0.187391996383667,1.5924999713897705,-2.6337499618530273,1.2512500286102295,-0.1570800095796585,-0.05698000267148018,-0.3494400084018707,0.0,0.0,0.0,0.0,0.0,0.0,False,0,3472
0.0,0.0,0.0,0.0,0.0,0.0,0.0,0.0,0.0,-0.0029296875,0.99658203125,0.21435546875,0.0,0.0,0.0,False,0,3473
0.0,0.0,0.0,0.0,0.0,0.0,0.0,0.0,0.0,0.0,0.0,0.0,0.0,0.0,0.0,False,0,3470
-0.994055986404419,-0.013175999745726585,0.19983600080013275,1.3912500143051147,-2.091249942779541,1.3825000524520874,-0.15036000311374664,-0.05950000137090683,-0.35364001989364624,0.0,0.0,0.0,0.0,0.0,0.0,False,0,3489
0.0,0.0,0.0,0.0,0.0,0.0,0.0,0.0,0.0,-0.00146484375,0.99951171875,0.21826171875,0.0,0.0,0.0,False,0,3490
0.0,0.0,0.0,0.0,0.0,0.0,0.0,0.0,0.0,0.0,0.0,0.0,0.0,0.0,0.0,False,0,3487
-0.9933239817619324,-0.00878399983048439,0.1925159990787506,1.5924999713897705,-2.528749942779541,1.3212499618530273,-0.16002000868320465,-0.05866000056266785,-0.3452399969100952,0.0,0.0,0.0,0.0,0.0,0.0,False,0,3506
0.0,0.0,0.0,0.0,0.0,0.0,0.0,0.0,0.0,-0.0029296875,1.0009765625,0.2138671875,0.0,0.0,0.0,False,0,3507
0.0,0.0,0.0,0.0,0.0,0.0,0.0,0.0,0.0,0.0,0.0,0.0,0.0,0.0,0.0,False,0,3504
-0.9999119639396667,-0.013907999731600285,0.1815359890460968,1.5137499570846558,-2.572499990463257,1.3737499713897705,-0.15931999683380127,-0.06132000312209129,-0.34244000911712646,0.0,0.0,0.0,0.0,0.0,0.0,False,0,3523
0.0,0.0,0.0,0.0,0.0,0.0,0.0,0.0,0.0,-0.00439453125,1.00244140625,0.2080078125,0.0,0.0,0.0,False,0,3524
0.0,0.0,0.0,0.0,0.0,0.0,0.0,0.0,0.0,0.0,0.0,0.0,0.0,0.0,0.0,False,0,3521
-0.9955199956893921,-0.024887999519705772,0.1925159990787506,1.3562500476837158,-2.3450000286102295,1.1375000476837158,-0.16016000509262085,-0.06258000433444977,-0.3463599979877472,0.0,0.0,0.0,0.0,0.0,0.0,False,0,3540
0.0,0.0,0.0,0.0,0.0,0.0,0.0,0.0,0.0,0.00634765625,1.00048828125,0.2021484375,0.0,0.0,0.0,False,0,3541
0.0,0.0,0.0,0.0,0.0,0.0,0.0,0.0,0.0,0.0,0.0,0.0,0.0,0.0,0.0,False,0,3538
-0.9882000088691711,-0.014639999717473984,0.20056799054145813,1.784999966621399,-2.458750009536743,1.3825000524520874,-0.15540000796318054,-0.06216000020503998,-0.3396400213241577,0.0,0.0,0.0,0.0,0.0,0.0,False,0,3557
0.0,0.0,0.0,0.0,0.0,0.0,0.0,0.0,0.0,0.0048828125,1.0126953125,0.20361328125,0.0,0.0,0.0,False,0,3558
0.0,0.0,0.0,0.0,0.0,0.0,0.0,0.0,0.0,0.0,0.0,0.0,0.0,0.0,0.0,False,0,3555
-0.9911279678344727,-0.012443999759852886,0.1903200000524521,1.8025000095367432,-2.2225000858306885,1.2862499952316284,-0.16016000509262085,-0.06524000316858292,-0.337119996547699,0.0,0.0,0.0,0.0,0.0,0.0,False,0,3574
0.0,0.0,0.0,0.0,0.0,0.0,0.0,0.0,0.0,0.0126953125,1.0029296875,0.2080078125,0.0,0.0,0.0,False,0,3575
0.0,0.0,0.0,0.0,0.0,0.0,0.0,0.0,0.0,0.0,0.0,0.0,0.0,0.0,0.0,False,0,3572
-0.9955199956893921,-0.00951599981635809,0.187391996383667,2.038749933242798,-2.5199999809265137,1.2949999570846558,-0.16198000311851501,-0.054179999977350235,-0.33866000175476074,0.0,0.0,0.0,0.0,0.0,0.0,False,0,3591
0.0,0.0,0.0,0.0,0.0,0.0,0.0,0.0,0.0,-0.0009765625,1.0009765625,0.20361328125,0.0,0.0,0.0,False,0,3592
0.0,0.0,0.0,0.0,0.0,0.0,0.0,0.0,0.0,0.0,0.0,0.0,0.0,0.0,0.0,False,0,3589
-0.9823439717292786,-0.025619998574256897,0.1844639927148819,1.7062499523162842,-2.3187499046325684,1.3912500143051147,-0.15861999988555908,-0.059220001101493835,-0.34426000714302063,0.0,0.0,0.0,0.0,0.0,0.0,False,0,3609
0.0,0.0,0.0,0.0,0.0,0.0,0.0,0.0,0.0,-0.0146484375,0.984375,0.216796875,0.0,0.0,0.0,False,0,3610
0.0,0.0,0.0,0.0,0.0,0.0,0.0,0.0,0.0,0.0,0.0,0.0,0.0,0.0,0.0,False,0,3607
-0.9933239817619324,-0.025619998574256897,0.18519599735736847,1.6100000143051147,-2.2925000190734863,1.3300000429153442,-0.16198000311851501,-0.05656000226736069,-0.34299999475479126,0.0,0.0,0.0,0.0,0.0,0.0,False,0,3626
0.0,0.0,0.0,0.0,0.0,0.0,0.0,0.0,0.0,-0.01220703125,0.97607421875,0.2119140625,0.0,0.0,0.0,False,0,3627
0.0,0.0,0.0,0.0,0.0,0.0,0.0,0.0,0.0,0.0,0.0,0.0,0.0,0.0,0.0,False,0,3624
-0.9977160096168518,-0.005123999901115894,0.1954440027475357,1.6362500190734863,-2.231250047683716,1.347499966621399,-0.162540003657341,-0.057680003345012665,-0.34216001629829407,0.0,0.0,0.0,0.0,0.0,0.0,False,0,3644
0.0,0.0,0.0,0.0,0.0,0.0,0.0,0.0,0.0,0.00830078125,0.998046875,0.20703125,0.0,0.0,0.0,False,0,3645
0.0,0.0,0.0,0.0,0.0,0.0,0.0,0.0,0.0,0.0,0.0,0.0,0.0,0.0,0.0,False,0,3642
-0.9903959631919861,-0.010979999788105488,0.187391996383667,1.6012500524520874,-2.327500104904175,1.2424999475479126,-0.15484000742435455,-0.06048000231385231,-0.34188002347946167,0.0,0.0,0.0,0.0,0.0,0.0,False,0,3661
0.0,0.0,0.0,0.0,0.0,0.0,0.0,0.0,0.0,0.01025390625,1.01171875,0.1865234375,0.0,0.0,0.0,False,0,3662
0.0,0.0,0.0,0.0,0.0,0.0,0.0,0.0,0.0,0.0,0.0,0.0,0.0,0.0,0.0,False,0,3659
-0.9911279678344727,-0.013175999745726585,0.18812400102615356,1.8112499713897705,-2.694999933242798,1.277500033378601,-0.16002000868320465,-0.06524000316858292,-0.34916001558303833,0.0,0.0,0.0,0.0,0.0,0.0,False,0,3678
0.0,0.0,0.0,0.0,0.0,0.0,0.0,0.0,0.0,0.0205078125,1.02099609375,0.181640625,0.0,0.0,0.0,False,0,3679
0.0,0.0,0.0,0.0,0.0,0.0,0.0,0.0,0.0,0.0,0.0,0.0,0.0,0.0,0.0,False,0,3676
-0.9889319539070129,-0.0226919986307621,0.17787599563598633,1.566249966621399,-2.5637500286102295,1.3125,-0.162540003657341,-0.061739999800920486,-0.34188002347946167,0.0,0.0,0.0,0.0,0.0,0.0,False,0,3696
0.0,0.0,0.0,0.0,0.0,0.0,0.0,0.0,0.0,-0.00048828125,1.00830078125,0.1904296875,0.0,0.0,0.0,False,0,3697
0.0,0.0,0.0,0.0,0.0,0.0,0.0,0.0,0.0,0.0,0.0,0.0,0.0,0.0,0.0,False,0,3694
-0.9991799592971802,-0.013175999745726585,0.18299999833106995,1.5750000476837158,-2.598750114440918,1.2162500619888306,-0.15974000096321106,-0.05740000307559967,-0.34734001755714417,0.0,0.0,0.0,0.0,0.0,0.0,False,0,3713
0.0,0.0,0.0,0.0,0.0,0.0,0.0,0.0,0.0,-0.00390625,0.9990234375,0.1904296875,0.0,0.0,0.0,False,0,3714
0.0,0.0,0.0,0.0,0.0,0.0,0.0,0.0,0.0,0.0,0.0,0.0,0.0,0.0,0.0,False,0,3711
-0.9991799592971802,-0.018300000578165054,0.19910399615764618,1.6712499856948853,-2.432500123977661,1.443750023841858,-0.16464000940322876,-0.059220001101493835,-0.34734001755714417,0.0,0.0,0.0,0.0,0.0,0.0,False,0,3731
0.0,0.0,0.0,0.0,0.0,0.0,0.0,0.0,0.0,-0.0009765625,0.98828125,0.19921875,0.0,0.0,0.0,False,0,3732
0.0,0.0,0.0,0.0,0.0,0.0,0.0,0.0,0.0,0.0,0.0,0.0,0.0,0.0,0.0,False,0,3729
-0.9947879910469055,-0.0226919986307621,0.17421600222587585,1.6100000143051147,-2.7387499809265137,1.3650000095367432,-0.15610000491142273,-0.05908000096678734,-0.3512600064277649,0.0,0.0,0.0,0.0,0.0,0.0,False,0,3748
0.0,0.0,0.0,0.0,0.0,0.0,0.0,0.0,0.0,0.01220703125,0.990234375,0.2060546875,0.0,0.0,0.0,False,0,3749
0.0,0.0,0.0,0.0,0.0,0.0,0.0,0.0,0.0,0.0,0.0,0.0,0.0,0.0,0.0,False,0,3746
-0.9955199956893921,-0.021959999576210976,0.17128799855709076,1.5837500095367432,-2.694999933242798,1.277500033378601,-0.15987999737262726,-0.06202000007033348,-0.34902000427246094,0.0,0.0,0.0,0.0,0.0,0.0,False,0,3765
0.0,0.0,0.0,0.0,0.0,0.0,0.0,0.0,0.0,0.0185546875,0.99658203125,0.1943359375,0.0,0.0,0.0,False,0,3766
0.0,0.0,0.0,0.0,0.0,0.0,0.0,0.0,0.0,0.0,0.0,0.0,0.0,0.0,0.0,False,0,3763
-0.9969840049743652,-0.0226919986307621,0.18080399930477142,1.566249966621399,-2.5374999046325684,1.4612499475479126,-0.1621199995279312,-0.057680003345012665,-0.35770002007484436,0.0,0.0,0.0,0.0,0.0,0.0,False,0,3783
0.0,0.0,0.0,0.0,0.0,0.0,0.0,0.0,0.0,0.0166015625,1.0087890625,0.203125,0.0,0.0,0.0,False,0,3784
0.0,0.0,0.0,0.0,0.0,0.0,0.0,0.0,0.0,0.0,0.0,0.0,0.0,0.0,0.0,False,0,3781
-0.9852719902992249,-0.016103999689221382,0.1815359890460968,1.408750057220459,-2.6424999237060547,1.5137499570846558,-0.16086000204086304,-0.06146000325679779,-0.34341999888420105,0.0,0.0,0.0,0.0,0.0,0.0,False,0,3800
0.0,0.0,0.0,0.0,0.0,0.0,0.0,0.0,0.0,0.00537109375,1.01025390625,0.20458984375,0.0,0.0,0.0,False,0,3801
0.0,0.0,0.0,0.0,0.0,0.0,0.0,0.0,0.0,0.0,0.0,0.0,0.0,0.0,0.0,False,0,3798
-0.9955199956893921,-0.013175999745726585,0.187391996383667,1.5049999952316284,-2.747499942779541,1.4612499475479126,-0.16198000311851501,-0.06384000182151794,-0.3551799952983856,0.0,0.0,0.0,0.0,0.0,0.0,False,0,3818
0.0,0.0,0.0,0.0,0.0,0.0,0.0,0.0,0.0,-0.0029296875,0.99951171875,0.1953125,0.0,0.0,0.0,False,0,3819
0.0,0.0,0.0,0.0,0.0,0.0,0.0,0.0,0.0,0.0,0.0,0.0,0.0,0.0,0.0,False,0,3816
-0.9991799592971802,-0.027084000408649445,0.18812400102615356,1.7412500381469727,-2.6075000762939453,1.225000023841858,-0.1633799970149994,-0.06314000487327576,-0.3518200218677521,0.0,0.0,0.0,0.0,0.0,0.0,False,0,3835
0.0,0.0,0.0,0.0,0.0,0.0,0.0,0.0,0.0,0.00341796875,0.984375,0.19775390625,0.0,0.0,0.0,False,0,3836
0.0,0.0,0.0,0.0,0.0,0.0,0.0,0.0,0.0,0.0,0.0,0.0,0.0,0.0,0.0,False,0,3833
-0.9955199956893921,-0.018300000578165054,0.19617599248886108,1.7762500047683716,-2.353749990463257,1.3300000429153442,-0.16184000670909882,-0.05754000321030617,-0.34846001863479614,0.0,0.0,0.0,0.0,0.0,0.0,False,0,3852
0.0,0.0,0.0,0.0,0.0,0.0,0.0,0.0,0.0,0.001953125,0.982421875,0.2109375,0.0,0.0,0.0,False,0,3853
0.0,0.0,0.0,0.0,0.0,0.0,0.0,0.0,0.0,0.0,0.0,0.0,0.0,0.0,0.0,False,0,3850
-0.9955199956893921,-0.013907999731600285,0.003659999929368496,1.5924999713897705,-2.581249952316284,1.2949999570846558,-0.16366000473499298,-0.05698000267148018,-0.3511199951171875,0.0,0.0,0.0,0.0,0.0,0.0,False,0,3870
0.0,0.0,0.0,0.0,0.0,0.0,0.0,0.0,0.0,-0.00390625,0.9912109375,0.21875,0.0,0.0,0.0,False,0,3871
0.0,0.0,0.0,0.0,0.0,0.0,0.0,0.0,0.0,0.0,0.0,0.0,0.0,0.0,0.0,False,0,3868
-0.9955199956893921,-0.010979999788105488,0.18958799540996552,1.5049999952316284,-2.5112500190734863,1.2687499523162842,-0.15820001065731049,-0.053620003163814545,-0.3543400168418884,0.0,0.0,0.0,0.0,0.0,0.0,False,0,3887
0.0,0.0,0.0,0.0,0.0,0.0,0.0,0.0,0.0,-0.01318359375,0.9873046875,0.21630859375,0.0,0.0,0.0,False,0,3888
0.0,0.0,0.0,0.0,0.0,0.0,0.0,0.0,0.0,0.0,0.0,0.0,0.0,0.0,0.0,False,0,3885
-1.2568439245224,-0.13468798995018005,0.25912800431251526,1.5575000047683716,-2.40625,1.75,-0.15890000760555267,-0.050119999796152115,-0.3519600033760071,0.0,0.0,0.0,0.0,0.0,0.0,False,0,3905
0.0,0.0,0.0,0.0,0.0,0.0,0.0,0.0,0.0,-0.01806640625,0.9892578125,0.19873046875,0.0,0.0,0.0,False,0,3906
0.0,0.0,0.0,0.0,0.0,0.0,0.0,0.0,0.0,0.0,0.0,0.0,0.0,0.0,0.0,False,0,3903
-0.9611159563064575,-0.007319999858736992,0.1617719978094101,0.5774999856948853,-2.6424999237060547,1.347499966621399,-0.16086000204086304,-0.05236000195145607,-0.3521000146865845,0.0,0.0,0.0,0.0,0.0,0.0,False,0,3922
0.0,0.0,0.0,0.0,0.0,0.0,0.0,0.0,0.0,0.0234375,0.9873046875,0.2099609375,0.0,0.0,0.0,False,0,3923
0.0,0.0,0.0,0.0,0.0,0.0,0.0,0.0,0.0,0.0,0.0,0.0,0.0,0.0,0.0,False,0,3920
-0.9896639585494995,-0.0021959999576210976,0.152988001704216,2.231250047683716,-2.598750114440918,1.408750057220459,-0.16086000204086304,-0.05852000042796135,-0.3519600033760071,0.0,0.0,0.0,0.0,0.0,0.0,False,0,3939
0.0,0.0,0.0,0.0,0.0,0.0,0.0,0.0,0.0,0.0048828125,0.9716796875,0.18994140625,0.0,0.0,0.0,False,0,3940
0.0,0.0,0.0,0.0,0.0,0.0,0.0,0.0,0.0,0.0,0.0,0.0,0.0,0.0,0.0,False,0,3937
-1.0116239786148071,-0.024887999519705772,0.1727519929409027,1.9162499904632568,-1.9862500429153442,1.3562500476837158,-0.15848000347614288,-0.06300000101327896,-0.3561600148677826,0.0,0.0,0.0,0.0,0.0,0.0,False,0,3957
0.0,0.0,0.0,0.0,0.0,0.0,0.0,0.0,0.0,-0.015625,0.9853515625,0.1884765625,0.0,0.0,0.0,False,0,3958
0.0,0.0,0.0,0.0,0.0,0.0,0.0,0.0,0.0,0.0,0.0,0.0,0.0,0.0,0.0,False,0,3955
-0.9933239817619324,-0.024156000465154648,0.19910399615764618,0.7437499761581421,-2.9487500190734863,1.3212499618530273,-0.15890000760555267,-0.05852000042796135,-0.3463599979877472,0.0,0.0,0.0,0.0,0.0,0.0,False,0,3974
0.0,0.0,0.0,0.0,0.0,0.0,0.0,0.0,0.0,-0.00390625,0.9970703125,0.2109375,0.0,0.0,0.0,False,0,3975
0.0,0.0,0.0,0.0,0.0,0.0,0.0,0.0,0.0,0.0,0.0,0.0,0.0,0.0,0.0,False,0,3972
-0.974291980266571,-0.018300000578165054,0.1705559939146042,1.4874999523162842,-3.333750009536743,1.347499966621399,-0.15876001119613647,-0.05460000038146973,-0.3470599949359894,0.0,0.0,0.0,0.0,0.0,0.0,False,0,3992
0.0,0.0,0.0,0.0,0.0,0.0,0.0,0.0,0.0,0.0009765625,1.0009765625,0.2099609375,0.0,0.0,0.0,False,0,3993
0.0,0.0,0.0,0.0,0.0,0.0,0.0,0.0,0.0,0.0,0.0,0.0,0.0,0.0,0.0,False,0,3990
-0.9911279678344727,-0.019763998687267303,0.19690799713134766,1.3650000095367432,-2.5374999046325684,1.3737499713897705,-0.152319997549057,-0.060200002044439316,-0.33893999457359314,0.0,0.0,0.0,0.0,0.0,0.0,False,0,4009
0.0,0.0,0.0,0.0,0.0,0.0,0.0,0.0,0.0,0.02734375,0.9892578125,0.19873046875,0.0,0.0,0.0,False,0,4010
0.0,0.0,0.0,0.0,0.0,0.0,0.0,0.0,0.0,0.0,0.0,0.0,0.0,0.0,0.0,False,0,4007
-0.9794159531593323,-0.010979999788105488,0.20642399787902832,1.566249966621399,-2.2225000858306885,1.3387500047683716,-0.16660000383853912,-0.05180000141263008,-0.345660001039505,0.0,0.0,0.0,0.0,0.0,0.0,False,0,4026
0.0,0.0,0.0,0.0,0.0,0.0,0.0,0.0,0.0,-0.01806640625,0.9853515625,0.2021484375,0.0,0.0,0.0,False,0,4027
0.0,0.0,0.0,0.0,0.0,0.0,0.0,0.0,0.0,0.0,0.0,0.0,0.0,0.0,0.0,False,0,4024
-0.9801479578018188,-0.03001200035214424,0.20056799054145813,1.6974999904632568,-2.8524999618530273,1.4700000286102295,-0.16002000868320465,-0.057680003345012665,-0.3459400236606598,0.0,0.0,0.0,0.0,0.0,0.0,False,0,4044
0.0,0.0,0.0,0.0,0.0,0.0,0.0,0.0,0.0,-0.02734375,0.986328125,0.21484375,0.0,0.0,0.0,False,0,4045
0.0,0.0,0.0,0.0,0.0,0.0,0.0,0.0,0.0,0.0,0.0,0.0,0.0,0.0,0.0,False,0,4042
-1.0043039321899414,-0.013907999731600285,0.18958799540996552,1.6887500286102295,-2.747499942779541,1.3125,-0.1621199995279312,-0.05320000275969505,-0.35266000032424927,0.0,0.0,0.0,0.0,0.0,0.0,False,0,4079
0.0,0.0,0.0,0.0,0.0,0.0,0.0,0.0,0.0,-0.00634765625,0.98876953125,0.20361328125,0.0,0.0,0.0,False,0,4080
0.0,0.0,0.0,0.0,0.0,0.0,0.0,0.0,0.0,0.0,0.0,0.0,0.0,0.0,0.0,False,0,4077
-0.9933239817619324,-0.016835998743772507,0.1786080002784729,1.5750000476837158,-2.065000057220459,1.4700000286102295,-0.15931999683380127,-0.05964000150561333,-0.3558800220489502,0.0,0.0,0.0,0.0,0.0,0.0,False,0,4089
0.0,0.0,0.0,0.0,0.0,0.0,0.0,0.0,0.0,0.001953125,0.98974609375,0.18603515625,0.0,0.0,0.0,False,0,4095
0.0,0.0,0.0,0.0,0.0,0.0,0.0,0.0,0.0,0.0,0.0,0.0,0.0,0.0,0.0,False,0,4087
-1.0013760328292847,-0.014639999717473984,0.18958799540996552,1.5225000381469727,-2.0737500190734863,1.4175000190734863,-0.16449999809265137,-0.06006000190973282,-0.346640020608902,0.0,0.0,0.0,0.0,0.0,0.0,False,0,4106
0.0,0.0,0.0,0.0,0.0,0.0,0.0,0.0,0.0,0.01708984375,0.9970703125,0.1767578125,0.0,0.0,0.0,False,0,4108
0.0,0.0,0.0,0.0,0.0,0.0,0.0,0.0,0.0,0.0,0.0,0.0,0.0,0.0,0.0,False,0,4099
-1.0950720310211182,-0.08198399841785431,0.15445199608802795,1.4262499809265137,-2.336250066757202,1.3737499713897705,-0.1624000072479248,-0.05740000307559967,-0.3495800197124481,0.0,0.0,0.0,0.0,0.0,0.0,False,0,4118
0.0,0.0,0.0,0.0,0.0,0.0,0.0,0.0,0.0,0.0185546875,1.03271484375,0.17919921875,0.0,0.0,0.0,False,0,4119
0.0,0.0,0.0,0.0,0.0,0.0,0.0,0.0,0.0,0.0,0.0,0.0,0.0,0.0,0.0,False,0,4115
-1.0233359336853027,-0.021959999576210976,0.18812400102615356,1.5137499570846558,-3.0450000762939453,1.4700000286102295,-0.15918000042438507,-0.05530000105500221,-0.346640020608902,0.0,0.0,0.0,0.0,0.0,0.0,False,0,4130
0.0,0.0,0.0,0.0,0.0,0.0,0.0,0.0,0.0,0.013671875,1.0498046875,0.1533203125,0.0,0.0,0.0,False,0,4136
0.0,0.0,0.0,0.0,0.0,0.0,0.0,0.0,0.0,0.0,0.0,0.0,0.0,0.0,0.0,False,0,4128
-0.9999119639396667,-0.014639999717473984,0.1617719978094101,1.3300000429153442,-2.7125000953674316,1.4700000286102295,-0.1580599993467331,-0.058240000158548355,-0.3518200218677521,0.0,0.0,0.0,0.0,0.0,0.0,False,0,4147
0.0,0.0,0.0,0.0,0.0,0.0,0.0,0.0,0.0,-0.01123046875,0.994140625,0.18115234375,0.0,0.0,0.0,False,0,4149
0.0,0.0,0.0,0.0,0.0,0.0,0.0,0.0,0.0,0.0,0.0,0.0,0.0,0.0,0.0,False,0,4140
-0.9999119639396667,-0.03294000029563904,0.2071560025215149,1.618749976158142,-1.9774999618530273,1.190000057220459,-0.16128000617027283,-0.06062000244855881,-0.3407600224018097,0.0,0.0,0.0,0.0,0.0,0.0,False,0,4158
0.0,0.0,0.0,0.0,0.0,0.0,0.0,0.0,0.0,-0.0078125,0.97998046875,0.2041015625,0.0,0.0,0.0,False,0,4164
0.0,0.0,0.0,0.0,0.0,0.0,0.0,0.0,0.0,0.0,0.0,0.0,0.0,0.0,0.0,False,0,4155
-0.9925919771194458,-0.016835998743772507,0.19178399443626404,1.5924999713897705,-2.5637500286102295,1.4350000619888306,-0.16198000311851501,-0.06342000514268875,-0.34216001629829407,0.0,0.0,0.0,0.0,0.0,0.0,False,0,4175
0.0,0.0,0.0,0.0,0.0,0.0,0.0,0.0,0.0,-0.00537109375,0.99951171875,0.20556640625,0.0,0.0,0.0,False,0,4177
0.0,0.0,0.0,0.0,0.0,0.0,0.0,0.0,0.0,0.0,0.0,0.0,0.0,0.0,0.0,False,0,4168
-0.9903959631919861,-0.012443999759852886,0.18665999174118042,1.7412500381469727,-2.940000057220459,1.2074999809265137,-0.15946000814437866,-0.054740000516176224,-0.34314000606536865,0.0,0.0,0.0,0.0,0.0,0.0,False,0,4186
0.0,0.0,0.0,0.0,0.0,0.0,0.0,0.0,0.0,-0.0078125,0.986328125,0.1982421875,0.0,0.0,0.0,False,0,4193
0.0,0.0,0.0,0.0,0.0,0.0,0.0,0.0,0.0,0.0,0.0,0.0,0.0,0.0,0.0,False,0,4183
-0.9911279678344727,-0.00951599981635809,0.1756799966096878,1.4350000619888306,-2.668750047683716,1.3737499713897705,-0.15540000796318054,-0.06006000190973282,-0.35322001576423645,0.0,0.0,0.0,0.0,0.0,0.0,False,0,4199
0.0,0.0,0.0,0.0,0.0,0.0,0.0,0.0,0.0,-0.0146484375,0.96875,0.205078125,0.0,0.0,0.0,False,0,4206
0.0,0.0,0.0,0.0,0.0,0.0,0.0,0.0,0.0,0.0,0.0,0.0,0.0,0.0,0.0,False,0,4197
-0.9889319539070129,-0.02122800052165985,0.18007199466228485,1.5225000381469727,-2.309999942779541,1.2162500619888306,-0.15974000096321106,-0.05908000096678734,-0.3518200218677521,0.0,0.0,0.0,0.0,0.0,0.0,False,0,4216
0.0,0.0,0.0,0.0,0.0,0.0,0.0,0.0,0.0,-0.0029296875,0.9853515625,0.20703125,0.0,0.0,0.0,False,0,4218
0.0,0.0,0.0,0.0,0.0,0.0,0.0,0.0,0.0,0.0,0.0,0.0,0.0,0.0,0.0,False,0,4209
-0.9955199956893921,-0.025619998574256897,0.18885599076747894,1.5750000476837158,-2.450000047683716,1.2599999904632568,-0.16114000976085663,-0.05992000177502632,-0.3507000207901001,0.0,0.0,0.0,0.0,0.0,0.0,False,0,4227
0.0,0.0,0.0,0.0,0.0,0.0,0.0,0.0,0.0,-0.00390625,0.99365234375,0.220703125,0.0,0.0,0.0,False,0,4233
0.0,0.0,0.0,0.0,0.0,0.0,0.0,0.0,0.0,0.0,0.0,0.0,0.0,0.0,0.0,False,0,4224
-0.9874680042266846,-0.016835998743772507,0.17714399099349976,1.566249966621399,-2.983750104904175,1.4524999856948853,-0.1576400101184845,-0.06524000316858292,-0.3519600033760071,0.0,0.0,0.0,0.0,0.0,0.0,False,0,4244
0.0,0.0,0.0,0.0,0.0,0.0,0.0,0.0,0.0,-0.0048828125,0.99951171875,0.21435546875,0.0,0.0,0.0,False,0,4246
0.0,0.0,0.0,0.0,0.0,0.0,0.0,0.0,0.0,0.0,0.0,0.0,0.0,0.0,0.0,False,0,4237
-0.9889319539070129,-0.003659999929368496,0.18299999833106995,1.6449999809265137,-2.2750000953674316,1.4612499475479126,-0.15848000347614288,-0.05810000002384186,-0.344539999961853,0.0,0.0,0.0,0.0,0.0,0.0,False,0,4255
0.0,0.0,0.0,0.0,0.0,0.0,0.0,0.0,0.0,-0.00048828125,1.01318359375,0.20263671875,0.0,0.0,0.0,False,0,4261
0.0,0.0,0.0,0.0,0.0,0.0,0.0,0.0,0.0,0.0,0.0,0.0,0.0,0.0,0.0,False,0,4252
-1.007964015007019,-0.02122800052165985,0.18958799540996552,1.715000033378601,-1.9162499904632568,1.3300000429153442,-0.15931999683380127,-0.05292000249028206,-0.34776002168655396,0.0,0.0,0.0,0.0,0.0,0.0,False,0,4272
0.0,0.0,0.0,0.0,0.0,0.0,0.0,0.0,0.0,-0.00634765625,1.00634765625,0.20068359375,0.0,0.0,0.0,False,0,4274
0.0,0.0,0.0,0.0,0.0,0.0,0.0,0.0,0.0,0.0,0.0,0.0,0.0,0.0,0.0,False,0,4265
-0.9991799592971802,-0.021959999576210976,0.187391996383667,1.399999976158142,-2.4149999618530273,1.2949999570846558,-0.1626800000667572,-0.06202000007033348,-0.3460800051689148,0.0,0.0,0.0,0.0,0.0,0.0,False,0,4283
0.0,0.0,0.0,0.0,0.0,0.0,0.0,0.0,0.0,-0.02001953125,0.9833984375,0.2216796875,0.0,0.0,0.0,False,0,4289
0.0,0.0,0.0,0.0,0.0,0.0,0.0,0.0,0.0,0.0,0.0,0.0,0.0,0.0,0.0,False,0,4280
-0.9933239817619324,-0.016103999689221382,0.18299999833106995,1.5837500095367432,-2.6162500381469727,1.347499966621399,-0.16142000257968903,-0.06342000514268875,-0.34398001432418823,0.0,0.0,0.0,0.0,0.0,0.0,False,0,4300
0.0,0.0,0.0,0.0,0.0,0.0,0.0,0.0,0.0,-0.01708984375,0.97998046875,0.21923828125,0.0,0.0,0.0,False,0,4302
0.0,0.0,0.0,0.0,0.0,0.0,0.0,0.0,0.0,0.0,0.0,0.0,0.0,0.0,0.0,False,0,4293
-0.9977160096168518,-0.016103999689221382,0.16543199121952057,1.4350000619888306,-2.40625,1.4700000286102295,-0.16086000204086304,-0.06006000190973282,-0.35322001576423645,0.0,0.0,0.0,0.0,0.0,0.0,False,0,4311
0.0,0.0,0.0,0.0,0.0,0.0,0.0,0.0,0.0,-0.0205078125,0.98291015625,0.20654296875,0.0,0.0,0.0,False,0,4317
0.0,0.0,0.0,0.0,0.0,0.0,0.0,0.0,0.0,0.0,0.0,0.0,0.0,0.0,0.0,False,0,4308
-0.9925919771194458,-0.014639999717473984,0.18226799368858337,1.3125,-2.7300000190734863,1.3387500047683716,-0.16142000257968903,-0.05838000029325485,-0.34370002150535583,0.0,0.0,0.0,0.0,0.0,0.0,False,0,4328
0.0,0.0,0.0,0.0,0.0,0.0,0.0,0.0,0.0,-0.01513671875,0.9833984375,0.2041015625,0.0,0.0,0.0,False,0,4330
0.0,0.0,0.0,0.0,0.0,0.0,0.0,0.0,0.0,0.0,0.0,0.0,0.0,0.0,0.0,False,0,4321
-0.9918599724769592,-0.015371999703347683,0.1903200000524521,1.5924999713897705,-2.5112500190734863,1.4700000286102295,-0.152319997549057,-0.05642000213265419,-0.3502800166606903,0.0,0.0,0.0,0.0,0.0,0.0,False,0,4339
0.0,0.0,0.0,0.0,0.0,0.0,0.0,0.0,0.0,-0.01806640625,0.9833984375,0.208984375,0.0,0.0,0.0,False,0,4344
0.0,0.0,0.0,0.0,0.0,0.0,0.0,0.0,0.0,0.0,0.0,0.0,0.0,0.0,0.0,False,0,4336
-0.9860039949417114,-0.021959999576210976,0.18519599735736847,1.662500023841858,-2.5112500190734863,1.3212499618530273,-0.1580599993467331,-0.06440000236034393,-0.3519600033760071,0.0,0.0,0.0,0.0,0.0,0.0,False,0,4355
0.0,0.0,0.0,0.0,0.0,0.0,0.0,0.0,0.0,0.0009765625,0.99267578125,0.201171875,0.0,0.0,0.0,False,0,4357
0.0,0.0,0.0,0.0,0.0,0.0,0.0,0.0,0.0,0.0,0.0,0.0,0.0,0.0,0.0,False,0,4348
-0.9955199956893921,-0.01756799966096878,0.18592800199985504,1.5575000047683716,-2.450000047683716,1.277500033378601,-0.15399999916553497,-0.055160000920295715,-0.3518200218677521,0.0,0.0,0.0,0.0,0.0,0.0,False,0,4366
0.0,0.0,0.0,0.0,0.0,0.0,0.0,0.0,0.0,-0.0087890625,0.978515625,0.2216796875,0.0,0.0,0.0,False,0,4372
0.0,0.0,0.0,0.0,0.0,0.0,0.0,0.0,0.0,0.0,0.0,0.0,0.0,0.0,0.0,False,0,4363
-0.9896639585494995,-0.01756799966096878,0.1903200000524521,1.6449999809265137,-2.432500123977661,1.408750057220459,-0.1573600023984909,-0.0560000017285347,-0.3502800166606903,0.0,0.0,0.0,0.0,0.0,0.0,False,0,4383
0.0,0.0,0.0,0.0,0.0,0.0,0.0,0.0,0.0,-0.01025390625,0.98583984375,0.20556640625,0.0,0.0,0.0,False,0,4385
0.0,0.0,0.0,0.0,0.0,0.0,0.0,0.0,0.0,0.0,0.0,0.0,0.0,0.0,0.0,False,0,4376
-0.9977160096168518,-0.011711999773979187,0.18812400102615356,1.4700000286102295,-2.7387499809265137,1.2862499952316284,-0.1527400016784668,-0.057819999754428864,-0.35294002294540405,0.0,0.0,0.0,0.0,0.0,0.0,False,0,4394
0.0,0.0,0.0,0.0,0.0,0.0,0.0,0.0,0.0,-0.00634765625,0.99462890625,0.2001953125,0.0,0.0,0.0,False,0,4401
0.0,0.0,0.0,0.0,0.0,0.0,0.0,0.0,0.0,0.0,0.0,0.0,0.0,0.0,0.0,False,0,4391
-0.9969840049743652,-0.02122800052165985,0.18665999174118042,1.6712499856948853,-2.651250123977661,1.3125,-0.15498000383377075,-0.061739999800920486,-0.3511199951171875,0.0,0.0,0.0,0.0,0.0,0.0,False,0,4407
0.0,0.0,0.0,0.0,0.0,0.0,0.0,0.0,0.0,-0.00439453125,0.98974609375,0.2041015625,0.0,0.0,0.0,False,0,4414
0.0,0.0,0.0,0.0,0.0,0.0,0.0,0.0,0.0,0.0,0.0,0.0,0.0,0.0,0.0,False,0,4405
-0.9889319539070129,-0.03147599846124649,0.1815359890460968,1.399999976158142,-2.4237499237060547,1.3387500047683716,-0.15568000078201294,-0.06537999957799911,-0.344539999961853,0.0,0.0,0.0,0.0,0.0,0.0,False,0,4424
0.0,0.0,0.0,0.0,0.0,0.0,0.0,0.0,0.0,0.00732421875,1.0107421875,0.201171875,0.0,0.0,0.0,False,0,4426
0.0,0.0,0.0,0.0,0.0,0.0,0.0,0.0,0.0,0.0,0.0,0.0,0.0,0.0,0.0,False,0,4417
-0.994055986404419,-0.018300000578165054,0.18373200297355652,1.4262499809265137,-2.3712499141693115,1.3650000095367432,-0.15428000688552856,-0.05460000038146973,-0.34817999601364136,0.0,0.0,0.0,0.0,0.0,0.0,False,0,4435
0.0,0.0,0.0,0.0,0.0,0.0,0.0,0.0,0.0,0.00048828125,0.99658203125,0.20263671875,0.0,0.0,0.0,False,0,4441
0.0,0.0,0.0,0.0,0.0,0.0,0.0,0.0,0.0,0.0,0.0,0.0,0.0,0.0,0.0,False,0,4432
-1.0006439685821533,-0.013175999745726585,0.1903200000524521,1.4612499475479126,-2.7562499046325684,1.3650000095367432,-0.15652000904083252,-0.056140001863241196,-0.3500000238418579,0.0,0.0,0.0,0.0,0.0,0.0,False,0,4452
0.0,0.0,0.0,0.0,0.0,0.0,0.0,0.0,0.0,0.0029296875,0.9970703125,0.20947265625,0.0,0.0,0.0,False,0,4454
0.0,0.0,0.0,0.0,0.0,0.0,0.0,0.0,0.0,0.0,0.0,0.0,0.0,0.0,0.0,False,0,4445
-0.9999119639396667,-0.019763998687267303,0.1903200000524521,1.715000033378601,-2.5374999046325684,1.4262499809265137,-0.16422000527381897,-0.05375999957323074,-0.35364001989364624,0.0,0.0,0.0,0.0,0.0,0.0,False,0,4463
0.0,0.0,0.0,0.0,0.0,0.0,0.0,0.0,0.0,0.01123046875,1.0048828125,0.19384765625,0.0,0.0,0.0,False,0,4469
0.0,0.0,0.0,0.0,0.0,0.0,0.0,0.0,0.0,0.0,0.0,0.0,0.0,0.0,0.0,False,0,4460
-0.9874680042266846,-0.021959999576210976,0.18373200297355652,1.6800000667572021,-2.380000114440918,1.5225000381469727,-0.16898000240325928,-0.05908000096678734,-0.3550400137901306,0.0,0.0,0.0,0.0,0.0,0.0,False,0,4481
0.0,0.0,0.0,0.0,0.0,0.0,0.0,0.0,0.0,0.0,1.00244140625,0.1748046875,0.0,0.0,0.0,False,0,4483
0.0,0.0,0.0,0.0,0.0,0.0,0.0,0.0,0.0,0.0,0.0,0.0,0.0,0.0,0.0,False,0,4473
-0.9969840049743652,-0.015371999703347683,0.1844639927148819,1.4787499904632568,-2.2049999237060547,1.347499966621399,-0.16408000886440277,-0.05852000042796135,-0.3501400053501129,0.0,0.0,0.0,0.0,0.0,0.0,False,0,4494
0.0,0.0,0.0,0.0,0.0,0.0,0.0,0.0,0.0,-0.01416015625,0.9892578125,0.1748046875,0.0,0.0,0.0,False,0,4495
0.0,0.0,0.0,0.0,0.0,0.0,0.0,0.0,0.0,0.0,0.0,0.0,0.0,0.0,0.0,False,0,4486
-0.9903959631919861,-0.013175999745726585,0.1815359890460968,1.5924999713897705,-2.3012499809265137,1.3825000524520874,-0.16464000940322876,-0.05642000213265419,-0.34384000301361084,0.0,0.0,0.0,0.0,0.0,0.0,False,0,4504
0.0,0.0,0.0,0.0,0.0,0.0,0.0,0.0,0.0,-0.0126953125,0.9873046875,0.19384765625,0.0,0.0,0.0,False,0,4510
0.0,0.0,0.0,0.0,0.0,0.0,0.0,0.0,0.0,0.0,0.0,0.0,0.0,0.0,0.0,False,0,4501
-0.9889319539070129,-0.014639999717473984,0.1925159990787506,1.715000033378601,-2.4937500953674316,1.4175000190734863,-0.16380000114440918,-0.058800000697374344,-0.344400018453598,0.0,0.0,0.0,0.0,0.0,0.0,False,0,4521
0.0,0.0,0.0,0.0,0.0,0.0,0.0,0.0,0.0,-0.0107421875,1.001953125,0.20361328125,0.0,0.0,0.0,False,0,4523
0.0,0.0,0.0,0.0,0.0,0.0,0.0,0.0,0.0,0.0,0.0,0.0,0.0,0.0,0.0,False,0,4514
-0.9933239817619324,-0.015371999703347683,0.18592800199985504,1.4700000286102295,-2.3887500762939453,1.3912500143051147,-0.15931999683380127,-0.06524000316858292,-0.35447999835014343,0.0,0.0,0.0,0.0,0.0,0.0,False,0,4532
0.0,0.0,0.0,0.0,0.0,0.0,0.0,0.0,0.0,-0.00439453125,1.00341796875,0.1943359375,0.0,0.0,0.0,False,0,4536
0.0,0.0,0.0,0.0,0.0,0.0,0.0,0.0,0.0,0.0,0.0,0.0,0.0,0.0,0.0,False,0,4529
-0.9911279678344727,-0.018300000578165054,0.18592800199985504,1.6712499856948853,-2.484999895095825,1.3825000524520874,-0.1628200113773346,-0.0558600015938282,-0.3501400053501129,0.0,0.0,0.0,0.0,0.0,0.0,False,0,4546
0.0,0.0,0.0,0.0,0.0,0.0,0.0,0.0,0.0,0.00048828125,0.99853515625,0.19189453125,0.0,0.0,0.0,False,0,4548
0.0,0.0,0.0,0.0,0.0,0.0,0.0,0.0,0.0,0.0,0.0,0.0,0.0,0.0,0.0,False,0,4544
-0.9911279678344727,-0.018300000578165054,0.1756799966096878,1.7237499952316284,-2.0999999046325684,1.3912500143051147,-0.1622600108385086,-0.058240000158548355,-0.35364001989364624,0.0,0.0,0.0,0.0,0.0,0.0,False,0,4559
0.0,0.0,0.0,0.0,0.0,0.0,0.0,0.0,0.0,-0.00341796875,0.994140625,0.19287109375,0.0,0.0,0.0,False,0,4560
0.0,0.0,0.0,0.0,0.0,0.0,0.0,0.0,0.0,0.0,0.0,0.0,0.0,0.0,0.0,False,0,4557
-0.9991799592971802,-0.023423999547958374,0.19105198979377747,1.715000033378601,-2.5374999046325684,1.190000057220459,-0.1684200018644333,-0.06425999850034714,-0.3512600064277649,0.0,0.0,0.0,0.0,0.0,0.0,False,0,4571
0.0,0.0,0.0,0.0,0.0,0.0,0.0,0.0,0.0,0.01611328125,1.00146484375,0.203125,0.0,0.0,0.0,False,0,4577
0.0,0.0,0.0,0.0,0.0,0.0,0.0,0.0,0.0,0.0,0.0,0.0,0.0,0.0,0.0,False,0,4569
-0.9882000088691711,-0.013907999731600285,0.18592800199985504,1.5924999713897705,-2.7125000953674316,1.2862499952316284,-0.15175999701023102,-0.060200002044439316,-0.34817999601364136,0.0,0.0,0.0,0.0,0.0,0.0,False,0,4588
0.0,0.0,0.0,0.0,0.0,0.0,0.0,0.0,0.0,0.0078125,1.0009765625,0.21728515625,0.0,0.0,0.0,False,0,4590
0.0,0.0,0.0,0.0,0.0,0.0,0.0,0.0,0.0,0.0,0.0,0.0,0.0,0.0,0.0,False,0,4581
-0.9977160096168518,-0.01756799966096878,0.17641200125217438,1.8725000619888306,-2.432500123977661,1.3212499618530273,-0.163100004196167,-0.057819999754428864,-0.3502800166606903,0.0,0.0,0.0,0.0,0.0,0.0,False,0,4599
0.0,0.0,0.0,0.0,0.0,0.0,0.0,0.0,0.0,0.0009765625,0.9931640625,0.224609375,0.0,0.0,0.0,False,0,4605
0.0,0.0,0.0,0.0,0.0,0.0,0.0,0.0,0.0,0.0,0.0,0.0,0.0,0.0,0.0,False,0,4596
-0.9918599724769592,-0.018300000578165054,0.1903200000524521,1.2949999570846558,-2.3887500762939453,1.4262499809265137,-0.1628200113773346,-0.05278000235557556,-0.3469200134277344,0.0,0.0,0.0,0.0,0.0,0.0,False,0,4616
0.0,0.0,0.0,0.0,0.0,0.0,0.0,0.0,0.0,-0.0078125,0.99609375,0.20703125,0.0,0.0,0.0,False,0,4618
0.0,0.0,0.0,0.0,0.0,0.0,0.0,0.0,0.0,0.0,0.0,0.0,0.0,0.0,0.0,False,0,4609
-0.9889319539070129,-0.0226919986307621,0.18226799368858337,1.627500057220459,-2.432500123977661,1.3300000429153442,-0.1628200113773346,-0.05754000321030617,-0.34929999709129333,0.0,0.0,0.0,0.0,0.0,0.0,False,0,4628
0.0,0.0,0.0,0.0,0.0,0.0,0.0,0.0,0.0,-0.01025390625,0.9970703125,0.20556640625,0.0,0.0,0.0,False,0,4629
0.0,0.0,0.0,0.0,0.0,0.0,0.0,0.0,0.0,0.0,0.0,0.0,0.0,0.0,0.0,False,0,4625
-0.9918599724769592,-0.014639999717473984,0.1844639927148819,1.6887500286102295,-2.572499990463257,1.2424999475479126,-0.16016000509262085,-0.05754000321030617,-0.3507000207901001,0.0,0.0,0.0,0.0,0.0,0.0,False,0,4640
0.0,0.0,0.0,0.0,0.0,0.0,0.0,0.0,0.0,-0.01416015625,0.9873046875,0.21435546875,0.0,0.0,0.0,False,0,4646
0.0,0.0,0.0,0.0,0.0,0.0,0.0,0.0,0.0,0.0,0.0,0.0,0.0,0.0,0.0,False,0,4638
-0.9955199956893921,-0.013907999731600285,0.17933999001979828,1.3825000524520874,-2.3012499809265137,1.2599999904632568,-0.15861999988555908,-0.058240000158548355,-0.3514000177383423,0.0,0.0,0.0,0.0,0.0,0.0,False,0,4657
0.0,0.0,0.0,0.0,0.0,0.0,0.0,0.0,0.0,-0.01123046875,0.98779296875,0.2099609375,0.0,0.0,0.0,False,0,4659
0.0,0.0,0.0,0.0,0.0,0.0,0.0,0.0,0.0,0.0,0.0,0.0,0.0,0.0,0.0,False,0,4650
-0.9933239817619324,-0.02122800052165985,0.19324800372123718,1.53125,-2.4412500858306885,1.3737499713897705,-0.15693999826908112,-0.05502000078558922,-0.3504199981689453,0.0,0.0,0.0,0.0,0.0,0.0,False,0,4668
0.0,0.0,0.0,0.0,0.0,0.0,0.0,0.0,0.0,-0.00732421875,0.99072265625,0.2119140625,0.0,0.0,0.0,False,0,4674
0.0,0.0,0.0,0.0,0.0,0.0,0.0,0.0,0.0,0.0,0.0,0.0,0.0,0.0,0.0,False,0,4665
-0.9874680042266846,-0.0226919986307621,0.17641200125217438,1.4524999856948853,-2.6424999237060547,1.2687499523162842,-0.16393999755382538,-0.055720001459121704,-0.3502800166606903,0.0,0.0,0.0,0.0,0.0,0.0,False,0,4685
0.0,0.0,0.0,0.0,0.0,0.0,0.0,0.0,0.0,0.00830078125,0.99658203125,0.20703125,0.0,0.0,0.0,False,0,4687
0.0,0.0,0.0,0.0,0.0,0.0,0.0,0.0,0.0,0.0,0.0,0.0,0.0,0.0,0.0,False,0,4678
-0.9955199956893921,-0.016103999689221382,0.18080399930477142,1.4700000286102295,-2.4937500953674316,1.3125,-0.16408000886440277,-0.05992000177502632,-0.3498600125312805,0.0,0.0,0.0,0.0,0.0,0.0,False,0,4698
0.0,0.0,0.0,0.0,0.0,0.0,0.0,0.0,0.0,0.0244140625,0.99560546875,0.201171875,0.0,0.0,0.0,False,0,4699
0.0,0.0,0.0,0.0,0.0,0.0,0.0,0.0,0.0,0.0,0.0,0.0,0.0,0.0,0.0,False,0,4695
-0.9903959631919861,-0.015371999703347683,0.17714399099349976,1.2599999904632568,-2.3887500762939453,1.3212499618530273,-0.16688001155853271,-0.060200002044439316,-0.3453800082206726,0.0,0.0,0.0,0.0,0.0,0.0,False,0,4710
0.0,0.0,0.0,0.0,0.0,0.0,0.0,0.0,0.0,0.00732421875,0.9931640625,0.2080078125,0.0,0.0,0.0,False,0,4711
0.0,0.0,0.0,0.0,0.0,0.0,0.0,0.0,0.0,0.0,0.0,0.0,0.0,0.0,0.0,False,0,4708
-0.9984479546546936,-0.016835998743772507,0.1983719915151596,1.399999976158142,-2.2750000953674316,1.2862499952316284,-0.1629600077867508,-0.05558000132441521,-0.3502800166606903,0.0,0.0,0.0,0.0,0.0,0.0,False,0,4722
0.0,0.0,0.0,0.0,0.0,0.0,0.0,0.0,0.0,0.00390625,1.0107421875,0.19873046875,0.0,0.0,0.0,False,0,4728
0.0,0.0,0.0,0.0,0.0,0.0,0.0,0.0,0.0,0.0,0.0,0.0,0.0,0.0,0.0,False,0,4720
-1.0006439685821533,-0.0226919986307621,0.19105198979377747,1.6974999904632568,-2.3712499141693115,1.347499966621399,-0.15974000096321106,-0.05894000083208084,-0.3494400084018707,0.0,0.0,0.0,0.0,0.0,0.0,False,0,4739
0.0,0.0,0.0,0.0,0.0,0.0,0.0,0.0,0.0,-0.00537109375,0.998046875,0.20849609375,0.0,0.0,0.0,False,0,4741
0.0,0.0,0.0,0.0,0.0,0.0,0.0,0.0,0.0,0.0,0.0,0.0,0.0,0.0,0.0,False,0,4732
-0.9947879910469055,-0.013175999745726585,0.18958799540996552,1.618749976158142,-2.3887500762939453,1.4700000286102295,-0.16408000886440277,-0.05852000042796135,-0.3568600118160248,0.0,0.0,0.0,0.0,0.0,0.0,False,0,4750
0.0,0.0,0.0,0.0,0.0,0.0,0.0,0.0,0.0,-0.00146484375,0.99853515625,0.205078125,0.0,0.0,0.0,False,0,4756
0.0,0.0,0.0,0.0,0.0,0.0,0.0,0.0,0.0,0.0,0.0,0.0,0.0,0.0,0.0,False,0,4747
-0.994055986404419,-0.021959999576210976,0.18080399930477142,1.6012500524520874,-2.3187499046325684,1.2162500619888306,-0.15960000455379486,-0.05740000307559967,-0.3546200096607208,0.0,0.0,0.0,0.0,0.0,0.0,False,0,4767
0.0,0.0,0.0,0.0,0.0,0.0,0.0,0.0,0.0,-0.009765625,0.990234375,0.2060546875,0.0,0.0,0.0,False,0,4769
0.0,0.0,0.0,0.0,0.0,0.0,0.0,0.0,0.0,0.0,0.0,0.0,0.0,0.0,0.0,False,0,4760
-0.9969840049743652,-0.011711999773979187,0.187391996383667,1.4524999856948853,-2.450000047683716,1.4262499809265137,-0.15414001047611237,-0.06552000343799591,-0.3459400236606598,0.0,0.0,0.0,0.0,0.0,0.0,False,0,4779
0.0,0.0,0.0,0.0,0.0,0.0,0.0,0.0,0.0,-0.01123046875,0.98681640625,0.20947265625,0.0,0.0,0.0,False,0,4780
0.0,0.0,0.0,0.0,0.0,0.0,0.0,0.0,0.0,0.0,0.0,0.0,0.0,0.0,0.0,False,0,4776
-0.9882000088691711,-0.016103999689221382,0.1925159990787506,1.4700000286102295,-2.546250104904175,1.4612499475479126,-0.1574999988079071,-0.05642000213265419,-0.3505600094795227,0.0,0.0,0.0,0.0,0.0,0.0,False,0,4791
0.0,0.0,0.0,0.0,0.0,0.0,0.0,0.0,0.0,-0.00341796875,0.9912109375,0.21875,0.0,0.0,0.0,False,0,4797
0.0,0.0,0.0,0.0,0.0,0.0,0.0,0.0,0.0,0.0,0.0,0.0,0.0,0.0,0.0,False,0,4789
-0.9874680042266846,-0.021959999576210976,0.18519599735736847,1.443750023841858,-2.484999895095825,1.2862499952316284,-0.16184000670909882,-0.053060002624988556,-0.35868000984191895,0.0,0.0,0.0,0.0,0.0,0.0,False,0,4808
0.0,0.0,0.0,0.0,0.0,0.0,0.0,0.0,0.0,0.01171875,1.0029296875,0.21630859375,0.0,0.0,0.0,False,0,4810
0.0,0.0,0.0,0.0,0.0,0.0,0.0,0.0,0.0,0.0,0.0,0.0,0.0,0.0,0.0,False,0,4801
-0.9984479546546936,-0.020495999604463577,0.1727519929409027,1.6012500524520874,-2.721250057220459,1.399999976158142,-0.16072000563144684,-0.05460000038146973,-0.356440007686615,0.0,0.0,0.0,0.0,0.0,0.0,False,0,4819
0.0,0.0,0.0,0.0,0.0,0.0,0.0,0.0,0.0,0.01220703125,0.9951171875,0.1923828125,0.0,0.0,0.0,False,0,4825
0.0,0.0,0.0,0.0,0.0,0.0,0.0,0.0,0.0,0.0,0.0,0.0,0.0,0.0,0.0,False,0,4816
-1.0013760328292847,-0.02635199949145317,0.18958799540996552,1.5837500095367432,-2.528749942779541,1.2862499952316284,-0.1572200059890747,-0.0558600015938282,-0.3519600033760071,0.0,0.0,0.0,0.0,0.0,0.0,False,0,4836
0.0,0.0,0.0,0.0,0.0,0.0,0.0,0.0,0.0,0.0107421875,0.99560546875,0.193359375,0.0,0.0,0.0,False,0,4838
0.0,0.0,0.0,0.0,0.0,0.0,0.0,0.0,0.0,0.0,0.0,0.0,0.0,0.0,0.0,False,0,4829
-0.9882000088691711,-0.019763998687267303,0.19178399443626404,1.5837500095367432,-2.40625,1.3912500143051147,-0.16086000204086304,-0.05292000249028206,-0.3521000146865845,0.0,0.0,0.0,0.0,0.0,0.0,False,0,4848
0.0,0.0,0.0,0.0,0.0,0.0,0.0,0.0,0.0,0.00439453125,0.99365234375,0.20947265625,0.0,0.0,0.0,False,0,4849
0.0,0.0,0.0,0.0,0.0,0.0,0.0,0.0,0.0,0.0,0.0,0.0,0.0,0.0,0.0,False,0,4845
-0.9947879910469055,-0.014639999717473984,0.1815359890460968,1.5575000047683716,-2.6424999237060547,1.4175000190734863,-0.15820001065731049,-0.0560000017285347,-0.3453800082206726,0.0,0.0,0.0,0.0,0.0,0.0,False,0,4860
0.0,0.0,0.0,0.0,0.0,0.0,0.0,0.0,0.0,0.00634765625,0.9921875,0.2021484375,0.0,0.0,0.0,False,0,4866
0.0,0.0,0.0,0.0,0.0,0.0,0.0,0.0,0.0,0.0,0.0,0.0,0.0,0.0,0.0,False,0,4858
-0.9911279678344727,-0.024887999519705772,0.18812400102615356,1.443750023841858,-2.747499942779541,1.347499966621399,-0.16043999791145325,-0.05236000195145607,-0.3543400168418884,0.0,0.0,0.0,0.0,0.0,0.0,False,0,4877
0.0,0.0,0.0,0.0,0.0,0.0,0.0,0.0,0.0,0.00830078125,0.9921875,0.21337890625,0.0,0.0,0.0,False,0,4879
0.0,0.0,0.0,0.0,0.0,0.0,0.0,0.0,0.0,0.0,0.0,0.0,0.0,0.0,0.0,False,0,4870
-0.9984479546546936,-0.016103999689221382,0.1786080002784729,1.5837500095367432,-2.4149999618530273,1.2687499523162842,-0.15540000796318054,-0.057680003345012665,-0.34817999601364136,0.0,0.0,0.0,0.0,0.0,0.0,False,0,4888
0.0,0.0,0.0,0.0,0.0,0.0,0.0,0.0,0.0,-0.00146484375,0.9892578125,0.21875,0.0,0.0,0.0,False,0,4894
0.0,0.0,0.0,0.0,0.0,0.0,0.0,0.0,0.0,0.0,0.0,0.0,0.0,0.0,0.0,False,0,4885
-0.9889319539070129,-0.018300000578165054,0.19105198979377747,1.5575000047683716,-2.572499990463257,1.399999976158142,-0.1524600088596344,-0.05502000078558922,-0.34314000606536865,0.0,0.0,0.0,0.0,0.0,0.0,False,0,4905
0.0,0.0,0.0,0.0,0.0,0.0,0.0,0.0,0.0,-0.01513671875,0.9951171875,0.2109375,0.0,0.0,0.0,False,0,4907
0.0,0.0,0.0,0.0,0.0,0.0,0.0,0.0,0.0,0.0,0.0,0.0,0.0,0.0,0.0,False,0,4898
-1.0035719871520996,-0.01756799966096878,0.19324800372123718,1.3562500476837158,-2.703749895095825,1.2074999809265137,-0.1576400101184845,-0.0558600015938282,-0.3446800112724304,0.0,0.0,0.0,0.0,0.0,0.0,False,0,4916
0.0,0.0,0.0,0.0,0.0,0.0,0.0,0.0,0.0,-0.001953125,0.9853515625,0.20751953125,0.0,0.0,0.0,False,0,4923
0.0,0.0,0.0,0.0,0.0,0.0,0.0,0.0,0.0,0.0,0.0,0.0,0.0,0.0,0.0,False,0,4913
-0.9911279678344727,-0.01756799966096878,0.18885599076747894,1.5575000047683716,-2.283750057220459,1.3125,-0.15946000814437866,-0.04942000284790993,-0.3554600179195404,0.0,0.0,0.0,0.0,0.0,0.0,False,0,4929
0.0,0.0,0.0,0.0,0.0,0.0,0.0,0.0,0.0,-0.00390625,0.98681640625,0.2109375,0.0,0.0,0.0,False,0,4936
0.0,0.0,0.0,0.0,0.0,0.0,0.0,0.0,0.0,0.0,0.0,0.0,0.0,0.0,0.0,False,0,4927
-0.9947879910469055,-0.014639999717473984,0.1844639927148819,1.53125,-2.309999942779541,1.4612499475479126,-0.15848000347614288,-0.04928000271320343,-0.3519600033760071,0.0,0.0,0.0,0.0,0.0,0.0,False,0,4946
0.0,0.0,0.0,0.0,0.0,0.0,0.0,0.0,0.0,-0.005859375,0.9970703125,0.19384765625,0.0,0.0,0.0,False,0,4948
0.0,0.0,0.0,0.0,0.0,0.0,0.0,0.0,0.0,0.0,0.0,0.0,0.0,0.0,0.0,False,0,4939
-1.0021079778671265,-0.014639999717473984,0.18007199466228485,1.662500023841858,-2.4412500858306885,1.399999976158142,-0.16604000329971313,-0.06202000007033348,-0.3546200096607208,0.0,0.0,0.0,0.0,0.0,0.0,False,0,4957
0.0,0.0,0.0,0.0,0.0,0.0,0.0,0.0,0.0,0.02392578125,1.01318359375,0.17626953125,0.0,0.0,0.0,False,0,4963
0.0,0.0,0.0,0.0,0.0,0.0,0.0,0.0,0.0,0.0,0.0,0.0,0.0,0.0,0.0,False,0,4954
-0.9955199956893921,-0.019763998687267303,0.18373200297355652,1.4175000190734863,-2.546250104904175,1.3300000429153442,-0.16646000742912292,-0.05389999970793724,-0.34776002168655396,0.0,0.0,0.0,0.0,0.0,0.0,False,0,4974
0.0,0.0,0.0,0.0,0.0,0.0,0.0,0.0,0.0,0.0126953125,0.99560546875,0.19140625,0.0,0.0,0.0,False,0,4976
0.0,0.0,0.0,0.0,0.0,0.0,0.0,0.0,0.0,0.0,0.0,0.0,0.0,0.0,0.0,False,0,4967
-0.9925919771194458,-0.010979999788105488,0.17641200125217438,1.7587499618530273,-2.6424999237060547,1.3300000429153442,-0.1677200049161911,-0.060200002044439316,-0.34762001037597656,0.0,0.0,0.0,0.0,0.0,0.0,False,0,4985
0.0,0.0,0.0,0.0,0.0,0.0,0.0,0.0,0.0,-0.00830078125,0.97802734375,0.228515625,0.0,0.0,0.0,False,0,4991
0.0,0.0,0.0,0.0,0.0,0.0,0.0,0.0,0.0,0.0,0.0,0.0,0.0,0.0,0.0,False,0,4982
-0.9925919771194458,-0.010979999788105488,0.18373200297355652,1.5399999618530273,-2.4237499237060547,1.4175000190734863,-0.15848000347614288,-0.06258000433444977,-0.3500000238418579,0.0,0.0,0.0,0.0,0.0,0.0,False,0,5003
0.0,0.0,0.0,0.0,0.0,0.0,0.0,0.0,0.0,-0.01513671875,0.98486328125,0.21826171875,0.0,0.0,0.0,False,0,5005
0.0,0.0,0.0,0.0,0.0,0.0,0.0,0.0,0.0,0.0,0.0,0.0,0.0,0.0,0.0,False,0,4995
-0.9991799592971802,-0.025619998574256897,0.19617599248886108,1.6712499856948853,-2.651250123977661,1.3212499618530273,-0.16393999755382538,-0.05964000150561333,-0.34411999583244324,0.0,0.0,0.0,0.0,0.0,0.0,False,0,5016
0.0,0.0,0.0,0.0,0.0,0.0,0.0,0.0,0.0,-0.0126953125,0.9775390625,0.21826171875,0.0,0.0,0.0,False,0,5017
0.0,0.0,0.0,0.0,0.0,0.0,0.0,0.0,0.0,0.0,0.0,0.0,0.0,0.0,0.0,False,0,5008
-0.9962520003318787,-0.02122800052165985,0.18373200297355652,1.7324999570846558,-2.528749942779541,1.225000023841858,-0.1621199995279312,-0.060200002044439316,-0.3495800197124481,0.0,0.0,0.0,0.0,0.0,0.0,False,0,5026
0.0,0.0,0.0,0.0,0.0,0.0,0.0,0.0,0.0,-0.013671875,0.9716796875,0.22021484375,0.0,0.0,0.0,False,0,5032
0.0,0.0,0.0,0.0,0.0,0.0,0.0,0.0,0.0,0.0,0.0,0.0,0.0,0.0,0.0,False,0,5023
-0.9977160096168518,-0.023423999547958374,0.18885599076747894,1.408750057220459,-2.4674999713897705,1.3125,-0.1681400090456009,-0.05502000078558922,-0.3511199951171875,0.0,0.0,0.0,0.0,0.0,0.0,False,0,5043
0.0,0.0,0.0,0.0,0.0,0.0,0.0,0.0,0.0,-0.00732421875,0.9970703125,0.1826171875,0.0,0.0,0.0,False,0,5045
0.0,0.0,0.0,0.0,0.0,0.0,0.0,0.0,0.0,0.0,0.0,0.0,0.0,0.0,0.0,False,0,5036
-0.9911279678344727,-0.015371999703347683,0.19690799713134766,1.7587499618530273,-2.555000066757202,1.0762499570846558,-0.16198000311851501,-0.058240000158548355,-0.34426000714302063,0.0,0.0,0.0,0.0,0.0,0.0,False,0,5054
0.0,0.0,0.0,0.0,0.0,0.0,0.0,0.0,0.0,0.00537109375,1.01025390625,0.17822265625,0.0,0.0,0.0,False,0,5060
0.0,0.0,0.0,0.0,0.0,0.0,0.0,0.0,0.0,0.0,0.0,0.0,0.0,0.0,0.0,False,0,5051
-0.9947879910469055,-0.012443999759852886,0.18885599076747894,1.4612499475479126,-2.6162500381469727,1.2687499523162842,-0.16478000581264496,-0.06062000244855881,-0.3500000238418579,0.0,0.0,0.0,0.0,0.0,0.0,False,0,5072
0.0,0.0,0.0,0.0,0.0,0.0,0.0,0.0,0.0,-0.00439453125,0.9755859375,0.2080078125,0.0,0.0,0.0,False,0,5074
0.0,0.0,0.0,0.0,0.0,0.0,0.0,0.0,0.0,0.0,0.0,0.0,0.0,0.0,0.0,False,0,5064
-0.9991799592971802,-0.016103999689221382,0.18812400102615356,1.496250033378601,-2.773750066757202,1.3387500047683716,-0.15987999737262726,-0.055720001459121704,-0.3469200134277344,0.0,0.0,0.0,0.0,0.0,0.0,False,0,5085
0.0,0.0,0.0,0.0,0.0,0.0,0.0,0.0,0.0,0.0048828125,0.98193359375,0.20361328125,0.0,0.0,0.0,False,0,5086
0.0,0.0,0.0,0.0,0.0,0.0,0.0,0.0,0.0,0.0,0.0,0.0,0.0,0.0,0.0,False,0,5077
-0.9838079810142517,-0.013907999731600285,0.18299999833106995,1.4700000286102295,-2.484999895095825,1.3212499618530273,-0.15568000078201294,-0.05502000078558922,-0.3469200134277344,0.0,0.0,0.0,0.0,0.0,0.0,False,0,5095
0.0,0.0,0.0,0.0,0.0,0.0,0.0,0.0,0.0,0.0009765625,1.0009765625,0.20947265625,0.0,0.0,0.0,False,0,5101
0.0,0.0,0.0,0.0,0.0,0.0,0.0,0.0,0.0,0.0,0.0,0.0,0.0,0.0,0.0,False,0,5092
-0.9969840049743652,-0.019763998687267303,0.18519599735736847,1.5137499570846558,-2.327500104904175,1.443750023841858,-0.15581999719142914,-0.05194000154733658,-0.35840001702308655,0.0,0.0,0.0,0.0,0.0,0.0,False,0,5112
0.0,0.0,0.0,0.0,0.0,0.0,0.0,0.0,0.0,-0.00732421875,1.001953125,0.1962890625,0.0,0.0,0.0,False,0,5114
0.0,0.0,0.0,0.0,0.0,0.0,0.0,0.0,0.0,0.0,0.0,0.0,0.0,0.0,0.0,False,0,5105
