ax,ay,az,gx,gy,gz,mx,my,mz,hg_ax,hg_ay,hg_az,latitude,longitude,altitude,GPS Lock,rocketState,timeStamp
-0.9903959631919861,-0.02122800052165985,0.16396799683570862,1.6012500524520874,-2.8787500858306885,1.4700000286102295,-0.1577800065279007,-0.053620003163814545,-0.35910001397132874,0.0,0.0,0.0,0.0,0.0,0.0,False,0,23
0.0,0.0,0.0,0.0,0.0,0.0,0.0,0.0,0.0,-0.0029296875,1.0029296875,0.18701171875,0.0,0.0,0.0,False,0,24
0.0,0.0,0.0,0.0,0.0,0.0,0.0,0.0,0.0,0.0,0.0,0.0,0.0,0.0,0.0,False,0,21
-1.0006439685821533,-0.010247999802231789,0.1559159904718399,1.715000033378601,-2.773750066757202,1.0412499904632568,-0.16505999863147736,-0.05754000321030617,-0.35840001702308655,0.0,0.0,0.0,0.0,0.0,0.0,False,0,40
0.0,0.0,0.0,0.0,0.0,0.0,0.0,0.0,0.0,-0.0126953125,0.9892578125,0.2080078125,0.0,0.0,0.0,False,0,41
0.0,0.0,0.0,0.0,0.0,0.0,0.0,0.0,0.0,0.0,0.0,0.0,0.0,0.0,0.0,False,0,38
-1.0021079778671265,-0.014639999717473984,0.1617719978094101,1.715000033378601,-2.721250057220459,1.2512500286102295,-0.16058000922203064,-0.04788000136613846,-0.34846001863479614,0.0,0.0,0.0,0.0,0.0,0.0,False,0,58
0.0,0.0,0.0,0.0,0.0,0.0,0.0,0.0,0.0,-0.01806640625,0.9951171875,0.21142578125,0.0,0.0,0.0,False,0,59
0.0,0.0,0.0,0.0,0.0,0.0,0.0,0.0,0.0,0.0,0.0,0.0,0.0,0.0,0.0,False,0,56
-0.9977160096168518,-0.010979999788105488,0.16103999316692352,1.96875,-2.9049999713897705,1.2424999475479126,-0.16170001029968262,-0.05460000038146973,-0.35266000032424927,0.0,0.0,0.0,0.0,0.0,0.0,False,0,75
0.0,0.0,0.0,0.0,0.0,0.0,0.0,0.0,0.0,0.00146484375,1.0068359375,0.19482421875,0.0,0.0,0.0,False,0,76
0.0,0.0,0.0,0.0,0.0,0.0,0.0,0.0,0.0,0.0,0.0,0.0,0.0,0.0,0.0,False,0,73
-0.9955199956893921,-0.016103999689221382,0.15957599878311157,1.7587499618530273,-2.4237499237060547,1.3387500047683716,-0.16604000329971313,-0.05236000195145607,-0.3557400107383728,0.0,0.0,0.0,0.0,0.0,0.0,False,0,92
0.0,0.0,0.0,0.0,0.0,0.0,0.0,0.0,0.0,-0.00048828125,1.0087890625,0.189453125,0.0,0.0,0.0,False,0,93
0.0,0.0,0.0,0.0,0.0,0.0,0.0,0.0,0.0,0.0,0.0,0.0,0.0,0.0,0.0,False,0,90
-0.994055986404419,-0.021959999576210976,0.16396799683570862,1.9249999523162842,-2.353749990463257,1.2074999809265137,-0.1624000072479248,-0.04816000163555145,-0.3562999963760376,0.0,0.0,0.0,0.0,0.0,0.0,False,0,110
0.0,0.0,0.0,0.0,0.0,0.0,0.0,0.0,0.0,0.009765625,1.01025390625,0.1708984375,0.0,0.0,0.0,False,0,111
0.0,0.0,0.0,0.0,0.0,0.0,0.0,0.0,0.0,0.0,0.0,0.0,0.0,0.0,0.0,False,0,108
-0.9977160096168518,-0.00878399983048439,0.1698240041732788,1.8112499713897705,-2.450000047683716,1.3562500476837158,-0.1633799970149994,-0.043960001319646835,-0.3605000078678131,0.0,0.0,0.0,0.0,0.0,0.0,False,0,127
0.0,0.0,0.0,0.0,0.0,0.0,0.0,0.0,0.0,0.009765625,1.01025390625,0.1806640625,0.0,0.0,0.0,False,0,128
0.0,0.0,0.0,0.0,0.0,0.0,0.0,0.0,0.0,0.0,0.0,0.0,0.0,0.0,0.0,False,0,125
-0.9991799592971802,-0.00878399983048439,0.15079200267791748,1.846250057220459,-2.380000114440918,1.5137499570846558,-0.1622600108385086,-0.04732000082731247,-0.3567200005054474,0.0,0.0,0.0,0.0,0.0,0.0,False,0,144
0.0,0.0,0.0,0.0,0.0,0.0,0.0,0.0,0.0,0.00830078125,1.01318359375,0.20751953125,0.0,0.0,0.0,False,0,145
0.0,0.0,0.0,0.0,0.0,0.0,0.0,0.0,0.0,0.0,0.0,0.0,0.0,0.0,0.0,False,0,142
-0.9874680042266846,-0.014639999717473984,0.158843994140625,1.8725000619888306,-2.450000047683716,1.277500033378601,-0.16030000150203705,-0.04928000271320343,-0.3620400130748749,0.0,0.0,0.0,0.0,0.0,0.0,False,0,162
0.0,0.0,0.0,0.0,0.0,0.0,0.0,0.0,0.0,-0.00244140625,1.009765625,0.1923828125,0.0,0.0,0.0,False,0,163
0.0,0.0,0.0,0.0,0.0,0.0,0.0,0.0,0.0,0.0,0.0,0.0,0.0,0.0,0.0,False,0,160
-1.0028399229049683,-0.013175999745726585,0.152988001704216,1.8025000095367432,-2.5199999809265137,1.277500033378601,-0.16534000635147095,-0.050119999796152115,-0.35840001702308655,0.0,0.0,0.0,0.0,0.0,0.0,False,0,179
0.0,0.0,0.0,0.0,0.0,0.0,0.0,0.0,0.0,0.005859375,0.9970703125,0.19384765625,0.0,0.0,0.0,False,0,180
0.0,0.0,0.0,0.0,0.0,0.0,0.0,0.0,0.0,0.0,0.0,0.0,0.0,0.0,0.0,False,0,177
-0.9845399856567383,-0.011711999773979187,0.16103999316692352,2.0037500858306885,-2.7300000190734863,1.5049999952316284,-0.16393999755382538,-0.05656000226736069,-0.3546200096607208,0.0,0.0,0.0,0.0,0.0,0.0,False,0,197
0.0,0.0,0.0,0.0,0.0,0.0,0.0,0.0,0.0,0.0048828125,1.0029296875,0.2021484375,0.0,0.0,0.0,False,0,198
0.0,0.0,0.0,0.0,0.0,0.0,0.0,0.0,0.0,0.0,0.0,0.0,0.0,0.0,0.0,False,0,195
-1.0028399229049683,-0.0226919986307621,0.16030800342559814,1.784999966621399,-2.327500104904175,1.3737499713897705,-0.16548000276088715,-0.055160000920295715,-0.3547600209712982,0.0,0.0,0.0,0.0,0.0,0.0,False,0,215
0.0,0.0,0.0,0.0,0.0,0.0,0.0,0.0,0.0,0.0146484375,1.005859375,0.19873046875,0.0,0.0,0.0,False,0,216
0.0,0.0,0.0,0.0,0.0,0.0,0.0,0.0,0.0,0.0,0.0,0.0,0.0,0.0,0.0,False,0,213
-1.006500005722046,-0.018300000578165054,0.16616399586200714,1.8112499713897705,-2.765000104904175,1.3125,-0.1679999977350235,-0.055160000920295715,-0.3554600179195404,0.0,0.0,0.0,0.0,0.0,0.0,False,0,232
0.0,0.0,0.0,0.0,0.0,0.0,0.0,0.0,0.0,0.0009765625,0.98876953125,0.205078125,0.0,0.0,0.0,False,0,233
0.0,0.0,0.0,0.0,0.0,0.0,0.0,0.0,0.0,0.0,0.0,0.0,0.0,0.0,0.0,False,0,230
-1.0013760328292847,-0.013907999731600285,0.16030800342559814,1.618749976158142,-2.6337499618530273,1.3912500143051147,-0.16590000689029694,-0.039480000734329224,-0.3562999963760376,0.0,0.0,0.0,0.0,0.0,0.0,False,0,250
0.0,0.0,0.0,0.0,0.0,0.0,0.0,0.0,0.0,-0.0126953125,0.98046875,0.21044921875,0.0,0.0,0.0,False,0,251
0.0,0.0,0.0,0.0,0.0,0.0,0.0,0.0,0.0,0.0,0.0,0.0,0.0,0.0,0.0,False,0,248
-0.9947879910469055,-0.018300000578165054,0.17128799855709076,1.6800000667572021,-2.581249952316284,1.225000023841858,-0.16380000114440918,-0.046059999614953995,-0.35406002402305603,0.0,0.0,0.0,0.0,0.0,0.0,False,0,267
0.0,0.0,0.0,0.0,0.0,0.0,0.0,0.0,0.0,-0.0126953125,0.984375,0.201171875,0.0,0.0,0.0,False,0,268
0.0,0.0,0.0,0.0,0.0,0.0,0.0,0.0,0.0,0.0,0.0,0.0,0.0,0.0,0.0,False,0,265
-1.0021079778671265,-0.014639999717473984,0.16396799683570862,1.784999966621399,-2.721250057220459,1.2599999904632568,-0.16492000222206116,-0.0407400019466877,-0.36329999566078186,0.0,0.0,0.0,0.0,0.0,0.0,False,0,285
0.0,0.0,0.0,0.0,0.0,0.0,0.0,0.0,0.0,-0.01171875,0.98779296875,0.2021484375,0.0,0.0,0.0,False,0,286
0.0,0.0,0.0,0.0,0.0,0.0,0.0,0.0,0.0,0.0,0.0,0.0,0.0,0.0,0.0,False,0,283
-1.0043039321899414,-0.010979999788105488,0.1668960005044937,1.9249999523162842,-2.7387499809265137,1.2949999570846558,-0.16464000940322876,-0.042980000376701355,-0.3651200234889984,0.0,0.0,0.0,0.0,0.0,0.0,False,0,302
0.0,0.0,0.0,0.0,0.0,0.0,0.0,0.0,0.0,-0.00927734375,0.990234375,0.20263671875,0.0,0.0,0.0,False,0,303
0.0,0.0,0.0,0.0,0.0,0.0,0.0,0.0,0.0,0.0,0.0,0.0,0.0,0.0,0.0,False,0,300
-1.0028399229049683,-0.011711999773979187,0.1676279902458191,1.7062499523162842,-2.694999933242798,1.1637500524520874,-0.1677200049161911,-0.04032000154256821,-0.35812002420425415,0.0,0.0,0.0,0.0,0.0,0.0,False,0,319
0.0,0.0,0.0,0.0,0.0,0.0,0.0,0.0,0.0,-0.0087890625,1.0068359375,0.2001953125,0.0,0.0,0.0,False,0,320
0.0,0.0,0.0,0.0,0.0,0.0,0.0,0.0,0.0,0.0,0.0,0.0,0.0,0.0,0.0,False,0,317
-0.9977160096168518,-0.013907999731600285,0.17714399099349976,1.7412500381469727,-2.651250123977661,1.2424999475479126,-0.15890000760555267,-0.04284000024199486,-0.36428001523017883,0.0,0.0,0.0,0.0,0.0,0.0,False,0,337
0.0,0.0,0.0,0.0,0.0,0.0,0.0,0.0,0.0,-0.0029296875,0.99560546875,0.19189453125,0.0,0.0,0.0,False,0,338
0.0,0.0,0.0,0.0,0.0,0.0,0.0,0.0,0.0,0.0,0.0,0.0,0.0,0.0,0.0,False,0,335
-0.9962520003318787,-0.016103999689221382,0.1698240041732788,1.6887500286102295,-2.8262500762939453,1.2512500286102295,-0.16534000635147095,-0.044520001858472824,-0.36329999566078186,0.0,0.0,0.0,0.0,0.0,0.0,False,0,354
0.0,0.0,0.0,0.0,0.0,0.0,0.0,0.0,0.0,-0.0126953125,0.96484375,0.205078125,0.0,0.0,0.0,False,0,355
0.0,0.0,0.0,0.0,0.0,0.0,0.0,0.0,0.0,0.0,0.0,0.0,0.0,0.0,0.0,False,0,352
-0.9984479546546936,-0.010979999788105488,0.1676279902458191,1.5924999713897705,-2.502500057220459,1.3650000095367432,-0.15876001119613647,-0.04508000239729881,-0.35840001702308655,0.0,0.0,0.0,0.0,0.0,0.0,False,0,372
0.0,0.0,0.0,0.0,0.0,0.0,0.0,0.0,0.0,-0.01513671875,0.9658203125,0.2060546875,0.0,0.0,0.0,False,0,373
0.0,0.0,0.0,0.0,0.0,0.0,0.0,0.0,0.0,0.0,0.0,0.0,0.0,0.0,0.0,False,0,370
-1.0021079778671265,-0.013175999745726585,0.1617719978094101,1.6974999904632568,-2.84375,1.3212499618530273,-0.1628200113773346,-0.047600001096725464,-0.36358001828193665,0.0,0.0,0.0,0.0,0.0,0.0,False,0,389
0.0,0.0,0.0,0.0,0.0,0.0,0.0,0.0,0.0,-0.01708984375,0.98291015625,0.201171875,0.0,0.0,0.0,False,0,390
0.0,0.0,0.0,0.0,0.0,0.0,0.0,0.0,0.0,0.0,0.0,0.0,0.0,0.0,0.0,False,0,387
-0.994055986404419,-0.010979999788105488,0.17348399758338928,1.7412500381469727,-2.476249933242798,1.0850000381469727,-0.1570800095796585,-0.04928000271320343,-0.35853999853134155,0.0,0.0,0.0,0.0,0.0,0.0,False,0,406
0.0,0.0,0.0,0.0,0.0,0.0,0.0,0.0,0.0,-0.00244140625,0.998046875,0.2109375,0.0,0.0,0.0,False,0,407
0.0,0.0,0.0,0.0,0.0,0.0,0.0,0.0,0.0,0.0,0.0,0.0,0.0,0.0,0.0,False,0,404
-0.9984479546546936,-0.011711999773979187,0.16616399586200714,1.6712499856948853,-2.817500114440918,1.1024999618530273,-0.16198000311851501,-0.050540000200271606,-0.36904001235961914,0.0,0.0,0.0,0.0,0.0,0.0,False,0,424
0.0,0.0,0.0,0.0,0.0,0.0,0.0,0.0,0.0,-0.01611328125,1.02197265625,0.1953125,0.0,0.0,0.0,False,0,425
0.0,0.0,0.0,0.0,0.0,0.0,0.0,0.0,0.0,0.0,0.0,0.0,0.0,0.0,0.0,False,0,422
-0.9889319539070129,-0.020495999604463577,0.17494799196720123,1.7675000429153442,-2.694999933242798,1.3387500047683716,-0.16548000276088715,-0.04255999997258186,-0.36218002438545227,0.0,0.0,0.0,0.0,0.0,0.0,False,0,439
0.0,0.0,0.0,0.0,0.0,0.0,0.0,0.0,0.0,-0.0361328125,1.044921875,0.2099609375,0.0,0.0,0.0,False,0,440
0.0,0.0,0.0,0.0,0.0,0.0,0.0,0.0,0.0,0.0,0.0,0.0,0.0,0.0,0.0,False,0,437
-0.9933239817619324,-0.015371999703347683,0.17202000319957733,1.75,-2.651250123977661,1.3737499713897705,-0.15890000760555267,-0.04536000266671181,-0.3610600233078003,0.0,0.0,0.0,0.0,0.0,0.0,False,0,457
0.0,0.0,0.0,0.0,0.0,0.0,0.0,0.0,0.0,-0.01806640625,1.0107421875,0.21240234375,0.0,0.0,0.0,False,0,458
0.0,0.0,0.0,0.0,0.0,0.0,0.0,0.0,0.0,0.0,0.0,0.0,0.0,0.0,0.0,False,0,455
-0.9977160096168518,-0.013175999745726585,0.1676279902458191,1.6887500286102295,-2.6337499618530273,1.4262499809265137,-0.15904000401496887,-0.04718000069260597,-0.3605000078678131,0.0,0.0,0.0,0.0,0.0,0.0,False,0,474
0.0,0.0,0.0,0.0,0.0,0.0,0.0,0.0,0.0,-0.021484375,0.99853515625,0.18310546875,0.0,0.0,0.0,False,0,475
0.0,0.0,0.0,0.0,0.0,0.0,0.0,0.0,0.0,0.0,0.0,0.0,0.0,0.0,0.0,False,0,472
-0.9933239817619324,-0.012443999759852886,0.17787599563598633,1.7587499618530273,-2.4412500858306885,1.3212499618530273,-0.16366000473499298,-0.04690000042319298,-0.35868000984191895,0.0,0.0,0.0,0.0,0.0,0.0,False,0,491
0.0,0.0,0.0,0.0,0.0,0.0,0.0,0.0,0.0,-0.017578125,0.99951171875,0.1611328125,0.0,0.0,0.0,False,0,492
0.0,0.0,0.0,0.0,0.0,0.0,0.0,0.0,0.0,0.0,0.0,0.0,0.0,0.0,0.0,False,0,489
-1.0028399229049683,-0.010247999802231789,0.1617719978094101,2.0562500953674316,-2.8787500858306885,1.408750057220459,-0.16548000276088715,-0.0457800030708313,-0.3567200005054474,0.0,0.0,0.0,0.0,0.0,0.0,False,0,509
0.0,0.0,0.0,0.0,0.0,0.0,0.0,0.0,0.0,-0.02490234375,0.9853515625,0.20703125,0.0,0.0,0.0,False,0,510
0.0,0.0,0.0,0.0,0.0,0.0,0.0,0.0,0.0,0.0,0.0,0.0,0.0,0.0,0.0,False,0,507
-0.9947879910469055,-0.008051999844610691,0.15445199608802795,1.9249999523162842,-2.6337499618530273,1.2862499952316284,-0.16155999898910522,-0.0457800030708313,-0.3516800105571747,0.0,0.0,0.0,0.0,0.0,0.0,False,0,526
0.0,0.0,0.0,0.0,0.0,0.0,0.0,0.0,0.0,-0.0087890625,0.96533203125,0.220703125,0.0,0.0,0.0,False,0,527
0.0,0.0,0.0,0.0,0.0,0.0,0.0,0.0,0.0,0.0,0.0,0.0,0.0,0.0,0.0,False,0,524
-0.9918599724769592,-0.016103999689221382,0.1705559939146042,1.9162499904632568,-2.555000066757202,1.3125,-0.1679999977350235,-0.04788000136613846,-0.36371999979019165,0.0,0.0,0.0,0.0,0.0,0.0,False,0,544
0.0,0.0,0.0,0.0,0.0,0.0,0.0,0.0,0.0,-0.01123046875,0.970703125,0.2158203125,0.0,0.0,0.0,False,0,545
0.0,0.0,0.0,0.0,0.0,0.0,0.0,0.0,0.0,0.0,0.0,0.0,0.0,0.0,0.0,False,0,542
-0.9962520003318787,-0.015371999703347683,0.16103999316692352,1.846250057220459,-2.257499933242798,1.190000057220459,-0.16967999935150146,-0.043960001319646835,-0.36358001828193665,0.0,0.0,0.0,0.0,0.0,0.0,False,0,561
0.0,0.0,0.0,0.0,0.0,0.0,0.0,0.0,0.0,-0.01025390625,0.98681640625,0.19970703125,0.0,0.0,0.0,False,0,562
0.0,0.0,0.0,0.0,0.0,0.0,0.0,0.0,0.0,0.0,0.0,0.0,0.0,0.0,0.0,False,0,559
-1.0021079778671265,-0.016835998743772507,0.1705559939146042,1.9774999618530273,-2.6862499713897705,1.3212499618530273,-0.16002000868320465,-0.04718000069260597,-0.3565800189971924,0.0,0.0,0.0,0.0,0.0,0.0,False,0,578
0.0,0.0,0.0,0.0,0.0,0.0,0.0,0.0,0.0,0.013671875,0.98681640625,0.1875,0.0,0.0,0.0,False,0,579
0.0,0.0,0.0,0.0,0.0,0.0,0.0,0.0,0.0,0.0,0.0,0.0,0.0,0.0,0.0,False,0,576
-0.9999119639396667,-0.015371999703347683,0.1647000014781952,1.5487500429153442,-2.5637500286102295,1.3387500047683716,-0.16911999881267548,-0.04942000284790993,-0.3606400191783905,0.0,0.0,0.0,0.0,0.0,0.0,False,0,596
0.0,0.0,0.0,0.0,0.0,0.0,0.0,0.0,0.0,0.025390625,0.9921875,0.1787109375,0.0,0.0,0.0,False,0,597
0.0,0.0,0.0,0.0,0.0,0.0,0.0,0.0,0.0,0.0,0.0,0.0,0.0,0.0,0.0,False,0,594
-0.9882000088691711,-0.016103999689221382,0.17128799855709076,1.837499976158142,-2.6424999237060547,1.4262499809265137,-0.16464000940322876,-0.050119999796152115,-0.35798001289367676,0.0,0.0,0.0,0.0,0.0,0.0,False,0,613
0.0,0.0,0.0,0.0,0.0,0.0,0.0,0.0,0.0,0.00732421875,1.0029296875,0.18701171875,0.0,0.0,0.0,False,0,614
0.0,0.0,0.0,0.0,0.0,0.0,0.0,0.0,0.0,0.0,0.0,0.0,0.0,0.0,0.0,False,0,611
-0.9947879910469055,-0.013907999731600285,0.17128799855709076,1.7937500476837158,-2.6862499713897705,1.2512500286102295,-0.16884000599384308,-0.048580002039670944,-0.3599400222301483,0.0,0.0,0.0,0.0,0.0,0.0,False,0,631
0.0,0.0,0.0,0.0,0.0,0.0,0.0,0.0,0.0,0.01220703125,1.01513671875,0.20361328125,0.0,0.0,0.0,False,0,632
0.0,0.0,0.0,0.0,0.0,0.0,0.0,0.0,0.0,0.0,0.0,0.0,0.0,0.0,0.0,False,0,629
-0.9977160096168518,-0.013175999745726585,0.1676279902458191,1.715000033378601,-2.896250009536743,1.2337499856948853,-0.1671600043773651,-0.04914000257849693,-0.34929999709129333,0.0,0.0,0.0,0.0,0.0,0.0,False,0,648
0.0,0.0,0.0,0.0,0.0,0.0,0.0,0.0,0.0,0.00927734375,1.00341796875,0.2060546875,0.0,0.0,0.0,False,0,649
0.0,0.0,0.0,0.0,0.0,0.0,0.0,0.0,0.0,0.0,0.0,0.0,0.0,0.0,0.0,False,0,646
-0.9969840049743652,-0.014639999717473984,0.16396799683570862,1.837499976158142,-2.6424999237060547,1.2599999904632568,-0.1671600043773651,-0.039480000734329224,-0.3562999963760376,0.0,0.0,0.0,0.0,0.0,0.0,False,0,665
0.0,0.0,0.0,0.0,0.0,0.0,0.0,0.0,0.0,0.0068359375,0.990234375,0.19140625,0.0,0.0,0.0,False,0,666
0.0,0.0,0.0,0.0,0.0,0.0,0.0,0.0,0.0,0.0,0.0,0.0,0.0,0.0,0.0,False,0,663
-0.9991799592971802,-0.012443999759852886,0.17641200125217438,1.7587499618530273,-2.940000057220459,1.3125,-0.16967999935150146,-0.04424000158905983,-0.36358001828193665,0.0,0.0,0.0,0.0,0.0,0.0,False,0,683
0.0,0.0,0.0,0.0,0.0,0.0,0.0,0.0,0.0,-0.00048828125,0.99169921875,0.2001953125,0.0,0.0,0.0,False,0,684
0.0,0.0,0.0,0.0,0.0,0.0,0.0,0.0,0.0,0.0,0.0,0.0,0.0,0.0,0.0,False,0,681
-0.994055986404419,-0.013175999745726585,0.1617719978094101,1.6887500286102295,-2.7300000190734863,1.2949999570846558,-0.16520000994205475,-0.04774000123143196,-0.3558800220489502,0.0,0.0,0.0,0.0,0.0,0.0,False,0,700
0.0,0.0,0.0,0.0,0.0,0.0,0.0,0.0,0.0,0.00341796875,0.99267578125,0.197265625,0.0,0.0,0.0,False,0,701
0.0,0.0,0.0,0.0,0.0,0.0,0.0,0.0,0.0,0.0,0.0,0.0,0.0,0.0,0.0,False,0,698
-0.9977160096168518,-0.007319999858736992,0.16250400245189667,1.7412500381469727,-2.6337499618530273,1.3562500476837158,-0.16940000653266907,-0.04746000096201897,-0.3655399978160858,0.0,0.0,0.0,0.0,0.0,0.0,False,0,718
0.0,0.0,0.0,0.0,0.0,0.0,0.0,0.0,0.0,-0.00634765625,0.99462890625,0.2001953125,0.0,0.0,0.0,False,0,719
0.0,0.0,0.0,0.0,0.0,0.0,0.0,0.0,0.0,0.0,0.0,0.0,0.0,0.0,0.0,False,0,716
-0.9882000088691711,-0.016103999689221382,0.17933999001979828,1.5924999713897705,-2.747499942779541,1.3300000429153442,-0.1674399971961975,-0.040880002081394196,-0.35784000158309937,0.0,0.0,0.0,0.0,0.0,0.0,False,0,735
0.0,0.0,0.0,0.0,0.0,0.0,0.0,0.0,0.0,0.0087890625,0.998046875,0.20361328125,0.0,0.0,0.0,False,0,736
0.0,0.0,0.0,0.0,0.0,0.0,0.0,0.0,0.0,0.0,0.0,0.0,0.0,0.0,0.0,False,0,733
-0.9860039949417114,-0.007319999858736992,0.17202000319957733,1.75,-3.0450000762939453,1.3737499713897705,-0.1684200018644333,-0.04746000096201897,-0.3549000024795532,0.0,0.0,0.0,0.0,0.0,0.0,False,0,752
0.0,0.0,0.0,0.0,0.0,0.0,0.0,0.0,0.0,0.0126953125,1.0029296875,0.203125,0.0,0.0,0.0,False,0,753
0.0,0.0,0.0,0.0,0.0,0.0,0.0,0.0,0.0,0.0,0.0,0.0,0.0,0.0,0.0,False,0,750
-1.0013760328292847,-0.010979999788105488,0.17202000319957733,1.5399999618530273,-2.9049999713897705,1.4612499475479126,-0.16604000329971313,-0.05040000006556511,-0.35923999547958374,0.0,0.0,0.0,0.0,0.0,0.0,False,0,770
0.0,0.0,0.0,0.0,0.0,0.0,0.0,0.0,0.0,0.001953125,0.98388671875,0.19482421875,0.0,0.0,0.0,False,0,771
0.0,0.0,0.0,0.0,0.0,0.0,0.0,0.0,0.0,0.0,0.0,0.0,0.0,0.0,0.0,False,0,768
-0.9918599724769592,-0.013175999745726585,0.17421600222587585,1.7324999570846558,-2.8262500762939453,1.399999976158142,-0.16911999881267548,-0.04466000199317932,-0.3625999987125397,0.0,0.0,0.0,0.0,0.0,0.0,False,0,787
0.0,0.0,0.0,0.0,0.0,0.0,0.0,0.0,0.0,-0.01123046875,1.0078125,0.1943359375,0.0,0.0,0.0,False,0,788
0.0,0.0,0.0,0.0,0.0,0.0,0.0,0.0,0.0,0.0,0.0,0.0,0.0,0.0,0.0,False,0,785
-0.9896639585494995,-0.010979999788105488,0.17202000319957733,1.8899999856948853,-3.0274999141693115,1.2512500286102295,-0.1675800085067749,-0.046620000153779984,-0.35812002420425415,0.0,0.0,0.0,0.0,0.0,0.0,False,0,805
0.0,0.0,0.0,0.0,0.0,0.0,0.0,0.0,0.0,-0.00537109375,1.0244140625,0.18603515625,0.0,0.0,0.0,False,0,806
0.0,0.0,0.0,0.0,0.0,0.0,0.0,0.0,0.0,0.0,0.0,0.0,0.0,0.0,0.0,False,0,803
-0.9918599724769592,-0.02122800052165985,0.1727519929409027,1.6362500190734863,-2.791249990463257,1.225000023841858,-0.1633799970149994,-0.046480000019073486,-0.35392001271247864,0.0,0.0,0.0,0.0,0.0,0.0,False,0,822
0.0,0.0,0.0,0.0,0.0,0.0,0.0,0.0,0.0,-0.0068359375,1.0078125,0.20458984375,0.0,0.0,0.0,False,0,823
0.0,0.0,0.0,0.0,0.0,0.0,0.0,0.0,0.0,0.0,0.0,0.0,0.0,0.0,0.0,False,0,820
-1.0021079778671265,-0.019763998687267303,0.18226799368858337,1.6537500619888306,-2.9312500953674316,1.3737499713897705,-0.1632400006055832,-0.039900001138448715,-0.3547600209712982,0.0,0.0,0.0,0.0,0.0,0.0,False,0,839
0.0,0.0,0.0,0.0,0.0,0.0,0.0,0.0,0.0,-0.00390625,0.9951171875,0.20166015625,0.0,0.0,0.0,False,0,840
0.0,0.0,0.0,0.0,0.0,0.0,0.0,0.0,0.0,0.0,0.0,0.0,0.0,0.0,0.0,False,0,837
-0.9977160096168518,-0.008051999844610691,0.17202000319957733,1.8899999856948853,-2.887500047683716,1.3212499618530273,-0.16561999917030334,-0.04255999997258186,-0.35728001594543457,0.0,0.0,0.0,0.0,0.0,0.0,False,0,857
0.0,0.0,0.0,0.0,0.0,0.0,0.0,0.0,0.0,-0.00439453125,0.9970703125,0.19970703125,0.0,0.0,0.0,False,0,858
0.0,0.0,0.0,0.0,0.0,0.0,0.0,0.0,0.0,0.0,0.0,0.0,0.0,0.0,0.0,False,0,855
-0.9882000088691711,-0.018300000578165054,0.17128799855709076,1.8899999856948853,-2.747499942779541,1.3037500381469727,-0.16520000994205475,-0.04536000266671181,-0.35350000858306885,0.0,0.0,0.0,0.0,0.0,0.0,False,0,874
0.0,0.0,0.0,0.0,0.0,0.0,0.0,0.0,0.0,-0.01025390625,0.99658203125,0.193359375,0.0,0.0,0.0,False,0,875
0.0,0.0,0.0,0.0,0.0,0.0,0.0,0.0,0.0,0.0,0.0,0.0,0.0,0.0,0.0,False,0,872
-0.9918599724769592,-0.019763998687267303,0.17714399099349976,1.715000033378601,-2.6600000858306885,1.4700000286102295,-0.16155999898910522,-0.04480000212788582,-0.3562999963760376,0.0,0.0,0.0,0.0,0.0,0.0,False,0,893
0.0,0.0,0.0,0.0,0.0,0.0,0.0,0.0,0.0,-0.005859375,0.98876953125,0.2109375,0.0,0.0,0.0,False,0,894
0.0,0.0,0.0,0.0,0.0,0.0,0.0,0.0,0.0,0.0,0.0,0.0,0.0,0.0,0.0,False,0,891
-0.9999119639396667,-0.02122800052165985,0.18519599735736847,1.9862500429153442,-2.625,1.2424999475479126,-0.16967999935150146,-0.046620000153779984,-0.35938000679016113,0.0,0.0,0.0,0.0,0.0,0.0,False,0,910
0.0,0.0,0.0,0.0,0.0,0.0,0.0,0.0,0.0,-0.02197265625,0.97607421875,0.22314453125,0.0,0.0,0.0,False,0,911
0.0,0.0,0.0,0.0,0.0,0.0,0.0,0.0,0.0,0.0,0.0,0.0,0.0,0.0,0.0,False,0,908
-0.9955199956893921,-0.013175999745726585,0.18373200297355652,1.6362500190734863,-2.7125000953674316,1.3912500143051147,-0.1629600077867508,-0.0457800030708313,-0.35826000571250916,0.0,0.0,0.0,0.0,0.0,0.0,False,0,927
0.0,0.0,0.0,0.0,0.0,0.0,0.0,0.0,0.0,-0.0263671875,0.97998046875,0.20361328125,0.0,0.0,0.0,False,0,928
0.0,0.0,0.0,0.0,0.0,0.0,0.0,0.0,0.0,0.0,0.0,0.0,0.0,0.0,0.0,False,0,925
-0.9977160096168518,-0.01756799966096878,0.15957599878311157,1.9774999618530273,-2.799999952316284,1.2949999570846558,-0.17010000348091125,-0.04536000266671181,-0.3574199974536896,0.0,0.0,0.0,0.0,0.0,0.0,False,0,945
0.0,0.0,0.0,0.0,0.0,0.0,0.0,0.0,0.0,-0.01953125,0.98291015625,0.19970703125,0.0,0.0,0.0,False,0,946
0.0,0.0,0.0,0.0,0.0,0.0,0.0,0.0,0.0,0.0,0.0,0.0,0.0,0.0,0.0,False,0,943
-0.9984479546546936,-0.01756799966096878,0.1559159904718399,1.618749976158142,-2.721250057220459,1.3387500047683716,-0.16352000832557678,-0.04746000096201897,-0.3725399971008301,0.0,0.0,0.0,0.0,0.0,0.0,False,0,960
0.0,0.0,0.0,0.0,0.0,0.0,0.0,0.0,0.0,-0.00732421875,0.98046875,0.1953125,0.0,0.0,0.0,False,0,961
0.0,0.0,0.0,0.0,0.0,0.0,0.0,0.0,0.0,0.0,0.0,0.0,0.0,0.0,0.0,False,0,958
-1.0013760328292847,-0.013907999731600285,0.1617719978094101,1.6012500524520874,-2.9487500190734863,1.2512500286102295,-0.1679999977350235,-0.04522000253200531,-0.3614799976348877,0.0,0.0,0.0,0.0,0.0,0.0,False,0,978
0.0,0.0,0.0,0.0,0.0,0.0,0.0,0.0,0.0,0.01171875,0.98779296875,0.18798828125,0.0,0.0,0.0,False,0,979
0.0,0.0,0.0,0.0,0.0,0.0,0.0,0.0,0.0,0.0,0.0,0.0,0.0,0.0,0.0,False,0,976
-0.9925919771194458,-0.015371999703347683,0.1705559939146042,1.6887500286102295,-2.870000123977661,1.408750057220459,-0.16184000670909882,-0.0457800030708313,-0.3599400222301483,0.0,0.0,0.0,0.0,0.0,0.0,False,0,995
0.0,0.0,0.0,0.0,0.0,0.0,0.0,0.0,0.0,0.02099609375,1.0078125,0.1982421875,0.0,0.0,0.0,False,0,996
0.0,0.0,0.0,0.0,0.0,0.0,0.0,0.0,0.0,0.0,0.0,0.0,0.0,0.0,0.0,False,0,993
-0.9977160096168518,-0.020495999604463577,0.1647000014781952,1.715000033378601,-2.8350000381469727,1.4175000190734863,-0.16016000509262085,-0.04844000190496445,-0.36288002133369446,0.0,0.0,0.0,0.0,0.0,0.0,False,0,1012
0.0,0.0,0.0,0.0,0.0,0.0,0.0,0.0,0.0,0.015625,1.00634765625,0.2080078125,0.0,0.0,0.0,False,0,1013
0.0,0.0,0.0,0.0,0.0,0.0,0.0,0.0,0.0,0.0,0.0,0.0,0.0,0.0,0.0,False,0,1010
-0.9947879910469055,-0.011711999773979187,0.16543199121952057,1.715000033378601,-2.7387499809265137,1.3562500476837158,-0.1632400006055832,-0.050680000334978104,-0.3507000207901001,0.0,0.0,0.0,0.0,0.0,0.0,False,0,1030
0.0,0.0,0.0,0.0,0.0,0.0,0.0,0.0,0.0,-0.00634765625,1.00146484375,0.20458984375,0.0,0.0,0.0,False,0,1031
0.0,0.0,0.0,0.0,0.0,0.0,0.0,0.0,0.0,0.0,0.0,0.0,0.0,0.0,0.0,False,0,1028
-0.9911279678344727,-0.012443999759852886,0.16543199121952057,1.6362500190734863,-2.9487500190734863,1.277500033378601,-0.16436000168323517,-0.051660001277923584,-0.3497200012207031,0.0,0.0,0.0,0.0,0.0,0.0,False,0,1047
0.0,0.0,0.0,0.0,0.0,0.0,0.0,0.0,0.0,-0.0009765625,1.00146484375,0.19482421875,0.0,0.0,0.0,False,0,1048
0.0,0.0,0.0,0.0,0.0,0.0,0.0,0.0,0.0,0.0,0.0,0.0,0.0,0.0,0.0,False,0,1045
-0.9947879910469055,-0.010979999788105488,0.1756799966096878,1.6100000143051147,-2.992500066757202,1.5575000047683716,-0.17052000761032104,-0.05040000006556511,-0.34860000014305115,0.0,0.0,0.0,0.0,0.0,0.0,False,0,1065
0.0,0.0,0.0,0.0,0.0,0.0,0.0,0.0,0.0,0.00634765625,1.00341796875,0.18701171875,0.0,0.0,0.0,False,0,1066
0.0,0.0,0.0,0.0,0.0,0.0,0.0,0.0,0.0,0.0,0.0,0.0,0.0,0.0,0.0,False,0,1063
-1.0006439685821533,-0.015371999703347683,0.16250400245189667,1.7062499523162842,-3.115000009536743,1.2512500286102295,-0.1679999977350235,-0.04368000105023384,-0.3504199981689453,0.0,0.0,0.0,0.0,0.0,0.0,False,0,1082
0.0,0.0,0.0,0.0,0.0,0.0,0.0,0.0,0.0,0.0048828125,0.99560546875,0.18994140625,0.0,0.0,0.0,False,0,1083
0.0,0.0,0.0,0.0,0.0,0.0,0.0,0.0,0.0,0.0,0.0,0.0,0.0,0.0,0.0,False,0,1080
-1.0028399229049683,-0.014639999717473984,0.1647000014781952,1.4524999856948853,-2.817500114440918,1.3387500047683716,-0.16884000599384308,-0.04480000212788582,-0.35784000158309937,0.0,0.0,0.0,0.0,0.0,0.0,False,0,1099
0.0,0.0,0.0,0.0,0.0,0.0,0.0,0.0,0.0,-0.0029296875,0.9912109375,0.1875,0.0,0.0,0.0,False,0,1100
0.0,0.0,0.0,0.0,0.0,0.0,0.0,0.0,0.0,0.0,0.0,0.0,0.0,0.0,0.0,False,0,1097
-0.9933239817619324,-0.014639999717473984,0.1756799966096878,1.75,-3.018749952316284,1.3300000429153442,-0.1681400090456009,-0.037800002843141556,-0.35938000679016113,0.0,0.0,0.0,0.0,0.0,0.0,False,0,1117
0.0,0.0,0.0,0.0,0.0,0.0,0.0,0.0,0.0,-0.0087890625,0.98974609375,0.19189453125,0.0,0.0,0.0,False,0,1118
0.0,0.0,0.0,0.0,0.0,0.0,0.0,0.0,0.0,0.0,0.0,0.0,0.0,0.0,0.0,False,0,1115
-1.0057679414749146,-0.011711999773979187,0.17494799196720123,1.4524999856948853,-2.8524999618530273,1.3912500143051147,-0.16170001029968262,-0.04004000127315521,-0.35447999835014343,0.0,0.0,0.0,0.0,0.0,0.0,False,0,1134
0.0,0.0,0.0,0.0,0.0,0.0,0.0,0.0,0.0,0.00146484375,0.9912109375,0.19921875,0.0,0.0,0.0,False,0,1135
0.0,0.0,0.0,0.0,0.0,0.0,0.0,0.0,0.0,0.0,0.0,0.0,0.0,0.0,0.0,False,0,1132
-0.9977160096168518,-0.00878399983048439,0.16250400245189667,1.837499976158142,-2.8262500762939453,1.347499966621399,-0.16352000832557678,-0.04410000145435333,-0.367220014333725,0.0,0.0,0.0,0.0,0.0,0.0,False,0,1152
0.0,0.0,0.0,0.0,0.0,0.0,0.0,0.0,0.0,0.0078125,0.98779296875,0.20556640625,0.0,0.0,0.0,False,0,1153
0.0,0.0,0.0,0.0,0.0,0.0,0.0,0.0,0.0,0.0,0.0,0.0,0.0,0.0,0.0,False,0,1150
-0.9925919771194458,-0.016103999689221382,0.1815359890460968,1.627500057220459,-3.0274999141693115,1.3300000429153442,-0.162540003657341,-0.0456400029361248,-0.3574199974536896,0.0,0.0,0.0,0.0,0.0,0.0,False,0,1169
0.0,0.0,0.0,0.0,0.0,0.0,0.0,0.0,0.0,-0.0009765625,0.98486328125,0.20947265625,0.0,0.0,0.0,False,0,1170
0.0,0.0,0.0,0.0,0.0,0.0,0.0,0.0,0.0,0.0,0.0,0.0,0.0,0.0,0.0,False,0,1167
-1.0021079778671265,-0.021959999576210976,0.17494799196720123,1.75,-2.922499895095825,1.3825000524520874,-0.1621199995279312,-0.04830000177025795,-0.3613400161266327,0.0,0.0,0.0,0.0,0.0,0.0,False,0,1186
0.0,0.0,0.0,0.0,0.0,0.0,0.0,0.0,0.0,0.00341796875,0.99609375,0.2138671875,0.0,0.0,0.0,False,0,1187
0.0,0.0,0.0,0.0,0.0,0.0,0.0,0.0,0.0,0.0,0.0,0.0,0.0,0.0,0.0,False,0,1184
-0.9925919771194458,-0.016835998743772507,0.1647000014781952,1.8025000095367432,-3.088750123977661,1.2162500619888306,-0.16449999809265137,-0.04774000123143196,-0.3547600209712982,0.0,0.0,0.0,0.0,0.0,0.0,False,0,1204
0.0,0.0,0.0,0.0,0.0,0.0,0.0,0.0,0.0,0.00390625,0.98486328125,0.205078125,0.0,0.0,0.0,False,0,1205
0.0,0.0,0.0,0.0,0.0,0.0,0.0,0.0,0.0,0.0,0.0,0.0,0.0,0.0,0.0,False,0,1202
-0.9984479546546936,-0.005123999901115894,0.17421600222587585,1.8200000524520874,-3.106250047683716,1.3212499618530273,-0.15931999683380127,-0.04368000105023384,-0.35322001576423645,0.0,0.0,0.0,0.0,0.0,0.0,False,0,1221
0.0,0.0,0.0,0.0,0.0,0.0,0.0,0.0,0.0,0.00390625,0.99169921875,0.1904296875,0.0,0.0,0.0,False,0,1222
0.0,0.0,0.0,0.0,0.0,0.0,0.0,0.0,0.0,0.0,0.0,0.0,0.0,0.0,0.0,False,0,1219
-0.9947879910469055,-0.012443999759852886,0.17787599563598633,1.7062499523162842,-2.694999933242798,1.408750057220459,-0.16548000276088715,-0.05180000141263008,-0.3612000048160553,0.0,0.0,0.0,0.0,0.0,0.0,False,0,1240
0.0,0.0,0.0,0.0,0.0,0.0,0.0,0.0,0.0,-0.00927734375,0.98291015625,0.20166015625,0.0,0.0,0.0,False,0,1241
0.0,0.0,0.0,0.0,0.0,0.0,0.0,0.0,0.0,0.0,0.0,0.0,0.0,0.0,0.0,False,0,1238
-0.9903959631919861,-0.011711999773979187,0.17494799196720123,1.96875,-2.817500114440918,1.408750057220459,-0.1624000072479248,-0.04424000158905983,-0.3452399969100952,0.0,0.0,0.0,0.0,0.0,0.0,False,0,1257
0.0,0.0,0.0,0.0,0.0,0.0,0.0,0.0,0.0,-0.0166015625,0.978515625,0.22021484375,0.0,0.0,0.0,False,0,1258
0.0,0.0,0.0,0.0,0.0,0.0,0.0,0.0,0.0,0.0,0.0,0.0,0.0,0.0,0.0,False,0,1255
-0.9918599724769592,-0.01756799966096878,0.17494799196720123,1.7675000429153442,-2.6862499713897705,1.3737499713897705,-0.16505999863147736,-0.041440002620220184,-0.35798001289367676,0.0,0.0,0.0,0.0,0.0,0.0,False,0,1274
0.0,0.0,0.0,0.0,0.0,0.0,0.0,0.0,0.0,-0.01171875,0.97607421875,0.22265625,0.0,0.0,0.0,False,0,1275
0.0,0.0,0.0,0.0,0.0,0.0,0.0,0.0,0.0,0.0,0.0,0.0,0.0,0.0,0.0,False,0,1272
-1.0057679414749146,-0.013175999745726585,0.17714399099349976,1.8637499809265137,-2.9749999046325684,1.408750057220459,-0.16534000635147095,-0.04158000275492668,-0.3560200035572052,0.0,0.0,0.0,0.0,0.0,0.0,False,0,1292
0.0,0.0,0.0,0.0,0.0,0.0,0.0,0.0,0.0,0.00146484375,1.01171875,0.193359375,0.0,0.0,0.0,False,0,1293
0.0,0.0,0.0,0.0,0.0,0.0,0.0,0.0,0.0,0.0,0.0,0.0,0.0,0.0,0.0,False,0,1290
-0.9984479546546936,-0.016103999689221382,0.17202000319957733,1.7937500476837158,-2.773750066757202,1.3650000095367432,-0.16604000329971313,-0.04213999956846237,-0.3574199974536896,0.0,0.0,0.0,0.0,0.0,0.0,False,0,1309
0.0,0.0,0.0,0.0,0.0,0.0,0.0,0.0,0.0,0.00537109375,1.01171875,0.19482421875,0.0,0.0,0.0,False,0,1310
0.0,0.0,0.0,0.0,0.0,0.0,0.0,0.0,0.0,0.0,0.0,0.0,0.0,0.0,0.0,False,0,1307
-0.9911279678344727,-0.013175999745726585,0.18007199466228485,1.9862500429153442,-2.6862499713897705,1.3387500047683716,-0.16604000329971313,-0.04942000284790993,-0.36371999979019165,0.0,0.0,0.0,0.0,0.0,0.0,False,0,1327
0.0,0.0,0.0,0.0,0.0,0.0,0.0,0.0,0.0,-0.0068359375,1.03466796875,0.20849609375,0.0,0.0,0.0,False,0,1328
0.0,0.0,0.0,0.0,0.0,0.0,0.0,0.0,0.0,0.0,0.0,0.0,0.0,0.0,0.0,False,0,1325
-1.0050359964370728,-0.018300000578165054,0.17202000319957733,1.933750033378601,-2.703749895095825,1.4350000619888306,-0.16184000670909882,-0.0456400029361248,-0.36441999673843384,0.0,0.0,0.0,0.0,0.0,0.0,False,0,1344
0.0,0.0,0.0,0.0,0.0,0.0,0.0,0.0,0.0,0.00927734375,1.0478515625,0.1943359375,0.0,0.0,0.0,False,0,1345
0.0,0.0,0.0,0.0,0.0,0.0,0.0,0.0,0.0,0.0,0.0,0.0,0.0,0.0,0.0,False,0,1342
-1.0013760328292847,-0.011711999773979187,0.17714399099349976,1.9774999618530273,-2.6337499618530273,1.2512500286102295,-0.15666000545024872,-0.043540000915527344,-0.3598000109195709,0.0,0.0,0.0,0.0,0.0,0.0,False,0,1361
0.0,0.0,0.0,0.0,0.0,0.0,0.0,0.0,0.0,0.0087890625,1.01513671875,0.1953125,0.0,0.0,0.0,False,0,1362
0.0,0.0,0.0,0.0,0.0,0.0,0.0,0.0,0.0,0.0,0.0,0.0,0.0,0.0,0.0,False,0,1359
-0.9977160096168518,-0.019763998687267303,0.17933999001979828,1.6100000143051147,-2.773750066757202,1.225000023841858,-0.16016000509262085,-0.04774000123143196,-0.3612000048160553,0.0,0.0,0.0,0.0,0.0,0.0,False,0,1379
0.0,0.0,0.0,0.0,0.0,0.0,0.0,0.0,0.0,0.00537109375,1.005859375,0.19140625,0.0,0.0,0.0,False,0,1380
0.0,0.0,0.0,0.0,0.0,0.0,0.0,0.0,0.0,0.0,0.0,0.0,0.0,0.0,0.0,False,0,1377
-0.9969840049743652,-0.016103999689221382,0.18519599735736847,1.7587499618530273,-2.5899999141693115,1.2162500619888306,-0.16058000922203064,-0.04213999956846237,-0.3610600233078003,0.0,0.0,0.0,0.0,0.0,0.0,False,0,1396
0.0,0.0,0.0,0.0,0.0,0.0,0.0,0.0,0.0,0.02197265625,1.00732421875,0.17431640625,0.0,0.0,0.0,False,0,1397
0.0,0.0,0.0,0.0,0.0,0.0,0.0,0.0,0.0,0.0,0.0,0.0,0.0,0.0,0.0,False,0,1394
-0.9896639585494995,-0.00878399983048439,0.17128799855709076,2.065000057220459,-2.6162500381469727,1.3912500143051147,-0.16380000114440918,-0.04928000271320343,-0.3570000231266022,0.0,0.0,0.0,0.0,0.0,0.0,False,0,1414
0.0,0.0,0.0,0.0,0.0,0.0,0.0,0.0,0.0,0.0087890625,1.01318359375,0.17236328125,0.0,0.0,0.0,False,0,1415
0.0,0.0,0.0,0.0,0.0,0.0,0.0,0.0,0.0,0.0,0.0,0.0,0.0,0.0,0.0,False,0,1412
-0.9947879910469055,-0.01903199963271618,0.17202000319957733,1.6800000667572021,-2.651250123977661,1.2512500286102295,-0.16072000563144684,-0.04619999974966049,-0.35406002402305603,0.0,0.0,0.0,0.0,0.0,0.0,False,0,1434
0.0,0.0,0.0,0.0,0.0,0.0,0.0,0.0,0.0,-0.00048828125,0.99365234375,0.1953125,0.0,0.0,0.0,False,0,1435
0.0,0.0,0.0,0.0,0.0,0.0,0.0,0.0,0.0,0.0,0.0,0.0,0.0,0.0,0.0,False,0,1432
-0.994055986404419,-0.016103999689221382,0.17641200125217438,1.9424999952316284,-2.40625,1.399999976158142,-0.16170001029968262,-0.04718000069260597,-0.35378000140190125,0.0,0.0,0.0,0.0,0.0,0.0,False,0,1451
0.0,0.0,0.0,0.0,0.0,0.0,0.0,0.0,0.0,-0.00927734375,0.990234375,0.2021484375,0.0,0.0,0.0,False,0,1452
0.0,0.0,0.0,0.0,0.0,0.0,0.0,0.0,0.0,0.0,0.0,0.0,0.0,0.0,0.0,False,0,1449
-0.9984479546546936,-0.016103999689221382,0.16323599219322205,2.021250009536743,-2.817500114440918,1.3825000524520874,-0.16967999935150146,-0.046480000019073486,-0.3567200005054474,0.0,0.0,0.0,0.0,0.0,0.0,False,0,1469
0.0,0.0,0.0,0.0,0.0,0.0,0.0,0.0,0.0,-0.00830078125,1.0078125,0.208984375,0.0,0.0,0.0,False,0,1470
0.0,0.0,0.0,0.0,0.0,0.0,0.0,0.0,0.0,0.0,0.0,0.0,0.0,0.0,0.0,False,0,1467
-0.9977160096168518,-0.012443999759852886,0.1668960005044937,1.8550000190734863,-2.5112500190734863,1.408750057220459,-0.16520000994205475,-0.043960001319646835,-0.3570000231266022,0.0,0.0,0.0,0.0,0.0,0.0,False,0,1486
0.0,0.0,0.0,0.0,0.0,0.0,0.0,0.0,0.0,-0.0205078125,1.013671875,0.20361328125,0.0,0.0,0.0,False,0,1487
0.0,0.0,0.0,0.0,0.0,0.0,0.0,0.0,0.0,0.0,0.0,0.0,0.0,0.0,0.0,False,0,1484
-0.9999119639396667,-0.011711999773979187,0.1756799966096878,1.8287500143051147,-2.6337499618530273,1.2424999475479126,-0.16926001012325287,-0.055720001459121704,-0.35910001397132874,0.0,0.0,0.0,0.0,0.0,0.0,False,0,1504
0.0,0.0,0.0,0.0,0.0,0.0,0.0,0.0,0.0,-0.0068359375,0.9990234375,0.1982421875,0.0,0.0,0.0,False,0,1505
0.0,0.0,0.0,0.0,0.0,0.0,0.0,0.0,0.0,0.0,0.0,0.0,0.0,0.0,0.0,False,0,1502
-0.9925919771194458,-0.01903199963271618,0.1727519929409027,1.7237499952316284,-2.8350000381469727,1.408750057220459,-0.16617999970912933,-0.04830000177025795,-0.35840001702308655,0.0,0.0,0.0,0.0,0.0,0.0,False,0,1521
0.0,0.0,0.0,0.0,0.0,0.0,0.0,0.0,0.0,-0.00390625,1.009765625,0.1875,0.0,0.0,0.0,False,0,1522
0.0,0.0,0.0,0.0,0.0,0.0,0.0,0.0,0.0,0.0,0.0,0.0,0.0,0.0,0.0,False,0,1519
-0.9962520003318787,-0.018300000578165054,0.18299999833106995,1.6012500524520874,-2.8087499141693115,1.3562500476837158,-0.16352000832557678,-0.04914000257849693,-0.3516800105571747,0.0,0.0,0.0,0.0,0.0,0.0,False,0,1538
0.0,0.0,0.0,0.0,0.0,0.0,0.0,0.0,0.0,-0.01025390625,1.01171875,0.1875,0.0,0.0,0.0,False,0,1539
0.0,0.0,0.0,0.0,0.0,0.0,0.0,0.0,0.0,0.0,0.0,0.0,0.0,0.0,0.0,False,0,1536
-1.0050359964370728,-0.015371999703347683,0.1647000014781952,1.6537500619888306,-2.870000123977661,1.3912500143051147,-0.1681400090456009,-0.04970000311732292,-0.3498600125312805,0.0,0.0,0.0,0.0,0.0,0.0,False,0,1556
0.0,0.0,0.0,0.0,0.0,0.0,0.0,0.0,0.0,-0.00146484375,1.00830078125,0.18994140625,0.0,0.0,0.0,False,0,1557
0.0,0.0,0.0,0.0,0.0,0.0,0.0,0.0,0.0,0.0,0.0,0.0,0.0,0.0,0.0,False,0,1554
-0.9903959631919861,-0.010979999788105488,0.16909199953079224,1.6712499856948853,-2.791249990463257,1.3212499618530273,-0.16436000168323517,-0.043960001319646835,-0.355320006608963,0.0,0.0,0.0,0.0,0.0,0.0,False,0,1573
0.0,0.0,0.0,0.0,0.0,0.0,0.0,0.0,0.0,-0.00048828125,1.00244140625,0.20654296875,0.0,0.0,0.0,False,0,1574
0.0,0.0,0.0,0.0,0.0,0.0,0.0,0.0,0.0,0.0,0.0,0.0,0.0,0.0,0.0,False,0,1571
-0.9977160096168518,-0.02122800052165985,0.1676279902458191,1.8725000619888306,-3.0799999237060547,1.2862499952316284,-0.16505999863147736,-0.04844000190496445,-0.3613400161266327,0.0,0.0,0.0,0.0,0.0,0.0,False,0,1591
0.0,0.0,0.0,0.0,0.0,0.0,0.0,0.0,0.0,-0.0009765625,1.00732421875,0.21142578125,0.0,0.0,0.0,False,0,1592
0.0,0.0,0.0,0.0,0.0,0.0,0.0,0.0,0.0,0.0,0.0,0.0,0.0,0.0,0.0,False,0,1589
-0.9969840049743652,-0.016103999689221382,0.17641200125217438,1.9249999523162842,-2.6600000858306885,1.347499966621399,-0.16449999809265137,-0.04928000271320343,-0.3570000231266022,0.0,0.0,0.0,0.0,0.0,0.0,False,0,1609
0.0,0.0,0.0,0.0,0.0,0.0,0.0,0.0,0.0,0.0087890625,1.0029296875,0.19775390625,0.0,0.0,0.0,False,0,1610
0.0,0.0,0.0,0.0,0.0,0.0,0.0,0.0,0.0,0.0,0.0,0.0,0.0,0.0,0.0,False,0,1607
-1.0013760328292847,-0.00878399983048439,0.17421600222587585,2.021250009536743,-2.8612499237060547,1.1987500190734863,-0.16590000689029694,-0.04690000042319298,-0.3617600202560425,0.0,0.0,0.0,0.0,0.0,0.0,False,0,1626
0.0,0.0,0.0,0.0,0.0,0.0,0.0,0.0,0.0,0.00537109375,0.994140625,0.189453125,0.0,0.0,0.0,False,0,1627
0.0,0.0,0.0,0.0,0.0,0.0,0.0,0.0,0.0,0.0,0.0,0.0,0.0,0.0,0.0,False,0,1624
-0.9911279678344727,-0.010247999802231789,0.1647000014781952,1.9774999618530273,-2.8787500858306885,1.2599999904632568,-0.16072000563144684,-0.04872000217437744,-0.3612000048160553,0.0,0.0,0.0,0.0,0.0,0.0,False,0,1644
0.0,0.0,0.0,0.0,0.0,0.0,0.0,0.0,0.0,-0.00341796875,0.98876953125,0.20166015625,0.0,0.0,0.0,False,0,1645
0.0,0.0,0.0,0.0,0.0,0.0,0.0,0.0,0.0,0.0,0.0,0.0,0.0,0.0,0.0,False,0,1642
-0.994055986404419,-0.012443999759852886,0.1844639927148819,1.5924999713897705,-2.791249990463257,1.3912500143051147,-0.16449999809265137,-0.054179999977350235,-0.3613400161266327,0.0,0.0,0.0,0.0,0.0,0.0,False,0,1661
0.0,0.0,0.0,0.0,0.0,0.0,0.0,0.0,0.0,0.00634765625,0.99658203125,0.19775390625,0.0,0.0,0.0,False,0,1662
0.0,0.0,0.0,0.0,0.0,0.0,0.0,0.0,0.0,0.0,0.0,0.0,0.0,0.0,0.0,False,0,1659
-1.0050359964370728,-0.00951599981635809,0.16835999488830566,1.8112499713897705,-2.7125000953674316,1.3825000524520874,-0.16380000114440918,-0.052080001682043076,-0.3647000193595886,0.0,0.0,0.0,0.0,0.0,0.0,False,0,1679
0.0,0.0,0.0,0.0,0.0,0.0,0.0,0.0,0.0,0.00634765625,1.0078125,0.19921875,0.0,0.0,0.0,False,0,1680
0.0,0.0,0.0,0.0,0.0,0.0,0.0,0.0,0.0,0.0,0.0,0.0,0.0,0.0,0.0,False,0,1677
-1.0006439685821533,-0.016835998743772507,0.17421600222587585,1.837499976158142,-3.184999942779541,1.2599999904632568,-0.16561999917030334,-0.05222000181674957,-0.3574199974536896,0.0,0.0,0.0,0.0,0.0,0.0,False,0,1696
0.0,0.0,0.0,0.0,0.0,0.0,0.0,0.0,0.0,0.0,1.0068359375,0.2138671875,0.0,0.0,0.0,False,0,1697
0.0,0.0,0.0,0.0,0.0,0.0,0.0,0.0,0.0,0.0,0.0,0.0,0.0,0.0,0.0,False,0,1694
-0.9918599724769592,-0.010979999788105488,0.1756799966096878,1.7062499523162842,-2.8350000381469727,1.4262499809265137,-0.16366000473499298,-0.04619999974966049,-0.356440007686615,0.0,0.0,0.0,0.0,0.0,0.0,False,0,1713
0.0,0.0,0.0,0.0,0.0,0.0,0.0,0.0,0.0,-0.0078125,0.9912109375,0.2177734375,0.0,0.0,0.0,False,0,1714
0.0,0.0,0.0,0.0,0.0,0.0,0.0,0.0,0.0,0.0,0.0,0.0,0.0,0.0,0.0,False,0,1711
-0.9977160096168518,-0.02122800052165985,0.1756799966096878,1.5137499570846558,-3.0625,1.4612499475479126,-0.16898000240325928,-0.05530000105500221,-0.3574199974536896,0.0,0.0,0.0,0.0,0.0,0.0,False,0,1731
0.0,0.0,0.0,0.0,0.0,0.0,0.0,0.0,0.0,-0.0029296875,0.98681640625,0.20361328125,0.0,0.0,0.0,False,0,1732
0.0,0.0,0.0,0.0,0.0,0.0,0.0,0.0,0.0,0.0,0.0,0.0,0.0,0.0,0.0,False,0,1729
-0.9955199956893921,-0.01756799966096878,0.17202000319957733,1.6800000667572021,-2.651250123977661,1.1725000143051147,-0.16520000994205475,-0.050680000334978104,-0.35826000571250916,0.0,0.0,0.0,0.0,0.0,0.0,False,0,1748
0.0,0.0,0.0,0.0,0.0,0.0,0.0,0.0,0.0,-0.0126953125,0.982421875,0.20263671875,0.0,0.0,0.0,False,0,1749
0.0,0.0,0.0,0.0,0.0,0.0,0.0,0.0,0.0,0.0,0.0,0.0,0.0,0.0,0.0,False,0,1746
-0.9962520003318787,-0.014639999717473984,0.17421600222587585,1.662500023841858,-2.7825000286102295,1.3912500143051147,-0.16870000958442688,-0.0509600006043911,-0.3602200150489807,0.0,0.0,0.0,0.0,0.0,0.0,False,0,1766
0.0,0.0,0.0,0.0,0.0,0.0,0.0,0.0,0.0,0.00390625,0.994140625,0.20361328125,0.0,0.0,0.0,False,0,1767
0.0,0.0,0.0,0.0,0.0,0.0,0.0,0.0,0.0,0.0,0.0,0.0,0.0,0.0,0.0,False,0,1764
-0.9903959631919861,-0.019763998687267303,0.17421600222587585,1.7762500047683716,-2.7825000286102295,1.4524999856948853,-0.1671600043773651,-0.04830000177025795,-0.35294002294540405,0.0,0.0,0.0,0.0,0.0,0.0,False,0,1783
0.0,0.0,0.0,0.0,0.0,0.0,0.0,0.0,0.0,-0.00390625,0.98583984375,0.1982421875,0.0,0.0,0.0,False,0,1784
0.0,0.0,0.0,0.0,0.0,0.0,0.0,0.0,0.0,0.0,0.0,0.0,0.0,0.0,0.0,False,0,1781
-1.0035719871520996,-0.011711999773979187,0.1786080002784729,1.8025000095367432,-2.6600000858306885,1.2162500619888306,-0.17122000455856323,-0.04718000069260597,-0.3666599988937378,0.0,0.0,0.0,0.0,0.0,0.0,False,0,1800
0.0,0.0,0.0,0.0,0.0,0.0,0.0,0.0,0.0,-0.0048828125,0.9833984375,0.20751953125,0.0,0.0,0.0,False,0,1801
0.0,0.0,0.0,0.0,0.0,0.0,0.0,0.0,0.0,0.0,0.0,0.0,0.0,0.0,0.0,False,0,1798
-0.9903959631919861,-0.016835998743772507,0.1815359890460968,1.6537500619888306,-2.6075000762939453,1.2687499523162842,-0.1677200049161911,-0.04774000123143196,-0.35896000266075134,0.0,0.0,0.0,0.0,0.0,0.0,False,0,1818
0.0,0.0,0.0,0.0,0.0,0.0,0.0,0.0,0.0,-0.005859375,0.98828125,0.1962890625,0.0,0.0,0.0,False,0,1819
0.0,0.0,0.0,0.0,0.0,0.0,0.0,0.0,0.0,0.0,0.0,0.0,0.0,0.0,0.0,False,0,1816
-1.0021079778671265,-0.01756799966096878,0.18299999833106995,2.047499895095825,-2.6075000762939453,1.5049999952316284,-0.16617999970912933,-0.04172000288963318,-0.36302000284194946,0.0,0.0,0.0,0.0,0.0,0.0,False,0,1835
0.0,0.0,0.0,0.0,0.0,0.0,0.0,0.0,0.0,0.00830078125,0.99853515625,0.1943359375,0.0,0.0,0.0,False,0,1836
0.0,0.0,0.0,0.0,0.0,0.0,0.0,0.0,0.0,0.0,0.0,0.0,0.0,0.0,0.0,False,0,1833
-0.9977160096168518,-0.016835998743772507,0.16835999488830566,1.933750033378601,-2.677500009536743,1.4524999856948853,-0.15987999737262726,-0.04970000311732292,-0.36834001541137695,0.0,0.0,0.0,0.0,0.0,0.0,False,0,1853
0.0,0.0,0.0,0.0,0.0,0.0,0.0,0.0,0.0,0.01416015625,0.99658203125,0.201171875,0.0,0.0,0.0,False,0,1854
0.0,0.0,0.0,0.0,0.0,0.0,0.0,0.0,0.0,0.0,0.0,0.0,0.0,0.0,0.0,False,0,1851
-0.9977160096168518,-0.013907999731600285,0.18080399930477142,1.7675000429153442,-2.4674999713897705,1.2862499952316284,-0.16436000168323517,-0.04788000136613846,-0.35853999853134155,0.0,0.0,0.0,0.0,0.0,0.0,False,0,1870
0.0,0.0,0.0,0.0,0.0,0.0,0.0,0.0,0.0,0.0048828125,0.97607421875,0.216796875,0.0,0.0,0.0,False,0,1871
0.0,0.0,0.0,0.0,0.0,0.0,0.0,0.0,0.0,0.0,0.0,0.0,0.0,0.0,0.0,False,0,1868
-1.0013760328292847,-0.0226919986307621,0.18226799368858337,2.065000057220459,-2.4674999713897705,1.2599999904632568,-0.16380000114440918,-0.044520001858472824,-0.35756000876426697,0.0,0.0,0.0,0.0,0.0,0.0,False,0,1887
0.0,0.0,0.0,0.0,0.0,0.0,0.0,0.0,0.0,0.00537109375,0.97705078125,0.20751953125,0.0,0.0,0.0,False,0,1888
0.0,0.0,0.0,0.0,0.0,0.0,0.0,0.0,0.0,0.0,0.0,0.0,0.0,0.0,0.0,False,0,1885
-1.006500005722046,-0.016103999689221382,0.18519599735736847,2.065000057220459,-2.765000104904175,1.4787499904632568,-0.16422000527381897,-0.04340000078082085,-0.35840001702308655,0.0,0.0,0.0,0.0,0.0,0.0,False,0,1905
0.0,0.0,0.0,0.0,0.0,0.0,0.0,0.0,0.0,0.0126953125,0.982421875,0.21728515625,0.0,0.0,0.0,False,0,1906
0.0,0.0,0.0,0.0,0.0,0.0,0.0,0.0,0.0,0.0,0.0,0.0,0.0,0.0,0.0,False,0,1903
-0.9874680042266846,-0.01756799966096878,0.17933999001979828,2.012500047683716,-2.7387499809265137,1.2687499523162842,-0.1624000072479248,-0.03920000046491623,-0.3518200218677521,0.0,0.0,0.0,0.0,0.0,0.0,False,0,1922
0.0,0.0,0.0,0.0,0.0,0.0,0.0,0.0,0.0,0.00732421875,0.986328125,0.2109375,0.0,0.0,0.0,False,0,1923
0.0,0.0,0.0,0.0,0.0,0.0,0.0,0.0,0.0,0.0,0.0,0.0,0.0,0.0,0.0,False,0,1920
-0.9955199956893921,-0.010247999802231789,0.18373200297355652,1.9424999952316284,-2.817500114440918,1.3212499618530273,-0.17108000814914703,-0.04466000199317932,-0.3603599965572357,0.0,0.0,0.0,0.0,0.0,0.0,False,0,1941
0.0,0.0,0.0,0.0,0.0,0.0,0.0,0.0,0.0,0.00634765625,0.99951171875,0.2080078125,0.0,0.0,0.0,False,0,1942
0.0,0.0,0.0,0.0,0.0,0.0,0.0,0.0,0.0,0.0,0.0,0.0,0.0,0.0,0.0,False,0,1939
-0.9933239817619324,-0.019763998687267303,0.16616399586200714,1.784999966621399,-2.694999933242798,1.2862499952316284,-0.16505999863147736,-0.040460001677274704,-0.35812002420425415,0.0,0.0,0.0,0.0,0.0,0.0,False,0,1958
0.0,0.0,0.0,0.0,0.0,0.0,0.0,0.0,0.0,-0.0029296875,0.98974609375,0.20361328125,0.0,0.0,0.0,False,0,1959
0.0,0.0,0.0,0.0,0.0,0.0,0.0,0.0,0.0,0.0,0.0,0.0,0.0,0.0,0.0,False,0,1956
-1.0013760328292847,-0.011711999773979187,0.17421600222587585,2.0299999713897705,-2.694999933242798,1.277500033378601,-0.15848000347614288,-0.04480000212788582,-0.3669400215148926,0.0,0.0,0.0,0.0,0.0,0.0,False,0,1975
0.0,0.0,0.0,0.0,0.0,0.0,0.0,0.0,0.0,-0.00390625,0.98876953125,0.19482421875,0.0,0.0,0.0,False,0,1976
0.0,0.0,0.0,0.0,0.0,0.0,0.0,0.0,0.0,0.0,0.0,0.0,0.0,0.0,0.0,False,0,1973
-0.994055986404419,-0.014639999717473984,0.18373200297355652,1.8112499713897705,-2.572499990463257,1.5137499570846558,-0.16155999898910522,-0.04312000051140785,-0.3675000071525574,0.0,0.0,0.0,0.0,0.0,0.0,False,0,1993
0.0,0.0,0.0,0.0,0.0,0.0,0.0,0.0,0.0,-0.00830078125,0.99560546875,0.205078125,0.0,0.0,0.0,False,0,1994
0.0,0.0,0.0,0.0,0.0,0.0,0.0,0.0,0.0,0.0,0.0,0.0,0.0,0.0,0.0,False,0,1991
-1.0050359964370728,-0.013907999731600285,0.1617719978094101,1.8899999856948853,-3.0450000762939453,1.2949999570846558,-0.15834000706672668,-0.04830000177025795,-0.35447999835014343,0.0,0.0,0.0,0.0,0.0,0.0,False,0,2010
0.0,0.0,0.0,0.0,0.0,0.0,0.0,0.0,0.0,0.01220703125,1.001953125,0.20556640625,0.0,0.0,0.0,False,0,2011
0.0,0.0,0.0,0.0,0.0,0.0,0.0,0.0,0.0,0.0,0.0,0.0,0.0,0.0,0.0,False,0,2008
-0.9962520003318787,-0.013907999731600285,0.17714399099349976,2.0299999713897705,-2.799999952316284,1.2337499856948853,-0.16590000689029694,-0.04676000028848648,-0.3598000109195709,0.0,0.0,0.0,0.0,0.0,0.0,False,0,2028
0.0,0.0,0.0,0.0,0.0,0.0,0.0,0.0,0.0,0.01416015625,1.0048828125,0.20263671875,0.0,0.0,0.0,False,0,2029
0.0,0.0,0.0,0.0,0.0,0.0,0.0,0.0,0.0,0.0,0.0,0.0,0.0,0.0,0.0,False,0,2026
-0.9903959631919861,-0.019763998687267303,0.16616399586200714,1.4524999856948853,-2.922499895095825,1.2337499856948853,-0.1629600077867508,-0.0457800030708313,-0.3511199951171875,0.0,0.0,0.0,0.0,0.0,0.0,False,0,2045
0.0,0.0,0.0,0.0,0.0,0.0,0.0,0.0,0.0,0.00830078125,0.9951171875,0.201171875,0.0,0.0,0.0,False,0,2046
0.0,0.0,0.0,0.0,0.0,0.0,0.0,0.0,0.0,0.0,0.0,0.0,0.0,0.0,0.0,False,0,2043
-0.9896639585494995,-0.008051999844610691,0.16323599219322205,1.6712499856948853,-2.546250104904175,1.4262499809265137,-0.16967999935150146,-0.04480000212788582,-0.35965999960899353,0.0,0.0,0.0,0.0,0.0,0.0,False,0,2062
0.0,0.0,0.0,0.0,0.0,0.0,0.0,0.0,0.0,-0.001953125,0.9853515625,0.20068359375,0.0,0.0,0.0,False,0,2063
0.0,0.0,0.0,0.0,0.0,0.0,0.0,0.0,0.0,0.0,0.0,0.0,0.0,0.0,0.0,False,0,2060
-0.9911279678344727,-0.018300000578165054,0.1698240041732788,1.784999966621399,-2.887500047683716,1.3125,-0.16688001155853271,-0.04718000069260597,-0.3505600094795227,0.0,0.0,0.0,0.0,0.0,0.0,False,0,2080
0.0,0.0,0.0,0.0,0.0,0.0,0.0,0.0,0.0,-0.00927734375,0.99365234375,0.20458984375,0.0,0.0,0.0,False,0,2081
0.0,0.0,0.0,0.0,0.0,0.0,0.0,0.0,0.0,0.0,0.0,0.0,0.0,0.0,0.0,False,0,2078
-1.0057679414749146,-0.01756799966096878,0.1815359890460968,1.8550000190734863,-2.5637500286102295,1.3562500476837158,-0.1671600043773651,-0.04018000140786171,-0.35392001271247864,0.0,0.0,0.0,0.0,0.0,0.0,False,0,2097
0.0,0.0,0.0,0.0,0.0,0.0,0.0,0.0,0.0,-0.0205078125,0.99951171875,0.18505859375,0.0,0.0,0.0,False,0,2098
0.0,0.0,0.0,0.0,0.0,0.0,0.0,0.0,0.0,0.0,0.0,0.0,0.0,0.0,0.0,False,0,2095
-0.9903959631919861,-0.018300000578165054,0.18007199466228485,1.6012500524520874,-2.9574999809265137,1.347499966621399,-0.16576001048088074,-0.04213999956846237,-0.35896000266075134,0.0,0.0,0.0,0.0,0.0,0.0,False,0,2115
0.0,0.0,0.0,0.0,0.0,0.0,0.0,0.0,0.0,-0.02978515625,0.99853515625,0.18115234375,0.0,0.0,0.0,False,0,2116
0.0,0.0,0.0,0.0,0.0,0.0,0.0,0.0,0.0,0.0,0.0,0.0,0.0,0.0,0.0,False,0,2113
-0.9999119639396667,-0.00878399983048439,0.17202000319957733,1.7324999570846558,-2.896250009536743,1.347499966621399,-0.1684200018644333,-0.04424000158905983,-0.3568600118160248,0.0,0.0,0.0,0.0,0.0,0.0,False,0,2132
0.0,0.0,0.0,0.0,0.0,0.0,0.0,0.0,0.0,0.0068359375,0.99609375,0.18994140625,0.0,0.0,0.0,False,0,2133
0.0,0.0,0.0,0.0,0.0,0.0,0.0,0.0,0.0,0.0,0.0,0.0,0.0,0.0,0.0,False,0,2130
-1.0043039321899414,-0.013175999745726585,0.17202000319957733,1.9600000381469727,-3.106250047683716,1.3300000429153442,-0.1671600043773651,-0.04844000190496445,-0.3625999987125397,0.0,0.0,0.0,0.0,0.0,0.0,False,0,2149
0.0,0.0,0.0,0.0,0.0,0.0,0.0,0.0,0.0,-0.00634765625,1.02099609375,0.18408203125,0.0,0.0,0.0,False,0,2150
0.0,0.0,0.0,0.0,0.0,0.0,0.0,0.0,0.0,0.0,0.0,0.0,0.0,0.0,0.0,False,0,2147
-0.9918599724769592,-0.019763998687267303,0.18665999174118042,1.4524999856948853,-2.791249990463257,1.3825000524520874,-0.16870000958442688,-0.050119999796152115,-0.3598000109195709,0.0,0.0,0.0,0.0,0.0,0.0,False,0,2167
0.0,0.0,0.0,0.0,0.0,0.0,0.0,0.0,0.0,-0.0068359375,1.037109375,0.17041015625,0.0,0.0,0.0,False,0,2168
0.0,0.0,0.0,0.0,0.0,0.0,0.0,0.0,0.0,0.0,0.0,0.0,0.0,0.0,0.0,False,0,2165
-0.9918599724769592,-0.016835998743772507,0.17421600222587585,1.618749976158142,-2.8612499237060547,1.225000023841858,-0.16982001066207886,-0.04382000118494034,-0.3605000078678131,0.0,0.0,0.0,0.0,0.0,0.0,False,0,2184
0.0,0.0,0.0,0.0,0.0,0.0,0.0,0.0,0.0,0.00439453125,0.99951171875,0.19970703125,0.0,0.0,0.0,False,0,2185
0.0,0.0,0.0,0.0,0.0,0.0,0.0,0.0,0.0,0.0,0.0,0.0,0.0,0.0,0.0,False,0,2182
-1.0021079778671265,-0.01756799966096878,0.1676279902458191,1.7937500476837158,-2.8524999618530273,1.399999976158142,-0.1682800054550171,-0.05138000100851059,-0.35923999547958374,0.0,0.0,0.0,0.0,0.0,0.0,False,0,2202
0.0,0.0,0.0,0.0,0.0,0.0,0.0,0.0,0.0,0.005859375,1.00048828125,0.1982421875,0.0,0.0,0.0,False,0,2203
0.0,0.0,0.0,0.0,0.0,0.0,0.0,0.0,0.0,0.0,0.0,0.0,0.0,0.0,0.0,False,0,2200
-0.9984479546546936,-0.02122800052165985,0.18007199466228485,1.5750000476837158,-2.922499895095825,1.3825000524520874,-0.173320010304451,-0.049560002982616425,-0.35266000032424927,0.0,0.0,0.0,0.0,0.0,0.0,False,0,2219
0.0,0.0,0.0,0.0,0.0,0.0,0.0,0.0,0.0,0.0146484375,1.01171875,0.1904296875,0.0,0.0,0.0,False,0,2220
0.0,0.0,0.0,0.0,0.0,0.0,0.0,0.0,0.0,0.0,0.0,0.0,0.0,0.0,0.0,False,0,2217
-1.0028399229049683,-0.00951599981635809,0.18007199466228485,1.846250057220459,-2.6600000858306885,1.399999976158142,-0.16688001155853271,-0.044520001858472824,-0.35965999960899353,0.0,0.0,0.0,0.0,0.0,0.0,False,0,2236
0.0,0.0,0.0,0.0,0.0,0.0,0.0,0.0,0.0,0.00830078125,1.00439453125,0.19140625,0.0,0.0,0.0,False,0,2237
0.0,0.0,0.0,0.0,0.0,0.0,0.0,0.0,0.0,0.0,0.0,0.0,0.0,0.0,0.0,False,0,2234
-0.9999119639396667,-0.024156000465154648,0.1786080002784729,2.021250009536743,-2.84375,1.347499966621399,-0.1679999977350235,-0.042419999837875366,-0.35938000679016113,0.0,0.0,0.0,0.0,0.0,0.0,False,0,2254
0.0,0.0,0.0,0.0,0.0,0.0,0.0,0.0,0.0,0.00146484375,1.00830078125,0.19091796875,0.0,0.0,0.0,False,0,2255
0.0,0.0,0.0,0.0,0.0,0.0,0.0,0.0,0.0,0.0,0.0,0.0,0.0,0.0,0.0,False,0,2252
-0.9962520003318787,-0.016835998743772507,0.17714399099349976,1.8987500667572021,-2.9749999046325684,1.2162500619888306,-0.16617999970912933,-0.03752000257372856,-0.3565800189971924,0.0,0.0,0.0,0.0,0.0,0.0,False,0,2271
0.0,0.0,0.0,0.0,0.0,0.0,0.0,0.0,0.0,0.001953125,1.00927734375,0.18603515625,0.0,0.0,0.0,False,0,2272
0.0,0.0,0.0,0.0,0.0,0.0,0.0,0.0,0.0,0.0,0.0,0.0,0.0,0.0,0.0,False,0,2269
-0.9969840049743652,-0.012443999759852886,0.18007199466228485,1.7762500047683716,-2.8262500762939453,1.4612499475479126,-0.16505999863147736,-0.048580002039670944,-0.36414000391960144,0.0,0.0,0.0,0.0,0.0,0.0,False,0,2289
0.0,0.0,0.0,0.0,0.0,0.0,0.0,0.0,0.0,0.0068359375,0.99609375,0.1884765625,0.0,0.0,0.0,False,0,2290
0.0,0.0,0.0,0.0,0.0,0.0,0.0,0.0,0.0,0.0,0.0,0.0,0.0,0.0,0.0,False,0,2287
-0.9889319539070129,-0.016103999689221382,0.1815359890460968,1.846250057220459,-2.922499895095825,1.2512500286102295,-0.1684200018644333,-0.04746000096201897,-0.36329999566078186,0.0,0.0,0.0,0.0,0.0,0.0,False,0,2306
0.0,0.0,0.0,0.0,0.0,0.0,0.0,0.0,0.0,-0.01318359375,1.00830078125,0.20263671875,0.0,0.0,0.0,False,0,2307
0.0,0.0,0.0,0.0,0.0,0.0,0.0,0.0,0.0,0.0,0.0,0.0,0.0,0.0,0.0,False,0,2304
-0.994055986404419,-0.016835998743772507,0.1727519929409027,1.881250023841858,-2.6862499713897705,1.190000057220459,-0.1681400090456009,-0.050680000334978104,-0.36288002133369446,0.0,0.0,0.0,0.0,0.0,0.0,False,0,2323
0.0,0.0,0.0,0.0,0.0,0.0,0.0,0.0,0.0,-0.0087890625,1.02001953125,0.2119140625,0.0,0.0,0.0,False,0,2324
0.0,0.0,0.0,0.0,0.0,0.0,0.0,0.0,0.0,0.0,0.0,0.0,0.0,0.0,0.0,False,0,2321
-0.9925919771194458,-0.012443999759852886,0.16909199953079224,2.108750104904175,-2.598750114440918,1.3037500381469727,-0.1734600067138672,-0.05222000181674957,-0.366100013256073,0.0,0.0,0.0,0.0,0.0,0.0,False,0,2341
0.0,0.0,0.0,0.0,0.0,0.0,0.0,0.0,0.0,0.00830078125,0.9931640625,0.2001953125,0.0,0.0,0.0,False,0,2342
0.0,0.0,0.0,0.0,0.0,0.0,0.0,0.0,0.0,0.0,0.0,0.0,0.0,0.0,0.0,False,0,2339
-0.9962520003318787,-0.01903199963271618,0.18007199466228485,1.9424999952316284,-2.6600000858306885,1.2424999475479126,-0.1685599982738495,-0.05040000006556511,-0.3607800006866455,0.0,0.0,0.0,0.0,0.0,0.0,False,0,2358
0.0,0.0,0.0,0.0,0.0,0.0,0.0,0.0,0.0,-0.005859375,1.001953125,0.1875,0.0,0.0,0.0,False,0,2359
0.0,0.0,0.0,0.0,0.0,0.0,0.0,0.0,0.0,0.0,0.0,0.0,0.0,0.0,0.0,False,0,2356
-0.9991799592971802,-0.02122800052165985,0.17128799855709076,1.5750000476837158,-2.703749895095825,1.2949999570846558,-0.16366000473499298,-0.05025999993085861,-0.3665200173854828,0.0,0.0,0.0,0.0,0.0,0.0,False,0,2375
0.0,0.0,0.0,0.0,0.0,0.0,0.0,0.0,0.0,0.0,1.01025390625,0.1845703125,0.0,0.0,0.0,False,0,2376
0.0,0.0,0.0,0.0,0.0,0.0,0.0,0.0,0.0,0.0,0.0,0.0,0.0,0.0,0.0,False,0,2373
-0.9947879910469055,-0.024156000465154648,0.16909199953079224,1.6449999809265137,-2.8787500858306885,1.4874999523162842,-0.16030000150203705,-0.055160000920295715,-0.3595200181007385,0.0,0.0,0.0,0.0,0.0,0.0,False,0,2393
0.0,0.0,0.0,0.0,0.0,0.0,0.0,0.0,0.0,-0.00439453125,0.9990234375,0.203125,0.0,0.0,0.0,False,0,2394
0.0,0.0,0.0,0.0,0.0,0.0,0.0,0.0,0.0,0.0,0.0,0.0,0.0,0.0,0.0,False,0,2391
-1.0028399229049683,-0.0226919986307621,0.17421600222587585,1.618749976158142,-2.8350000381469727,1.3912500143051147,-0.1624000072479248,-0.05138000100851059,-0.3610600233078003,0.0,0.0,0.0,0.0,0.0,0.0,False,0,2410
0.0,0.0,0.0,0.0,0.0,0.0,0.0,0.0,0.0,-0.0126953125,0.98095703125,0.21240234375,0.0,0.0,0.0,False,0,2411
0.0,0.0,0.0,0.0,0.0,0.0,0.0,0.0,0.0,0.0,0.0,0.0,0.0,0.0,0.0,False,0,2408
-0.9911279678344727,-0.01903199963271618,0.18592800199985504,1.784999966621399,-2.668750047683716,1.2599999904632568,-0.16646000742912292,-0.044520001858472824,-0.3574199974536896,0.0,0.0,0.0,0.0,0.0,0.0,False,0,2428
0.0,0.0,0.0,0.0,0.0,0.0,0.0,0.0,0.0,-0.02197265625,0.9609375,0.21630859375,0.0,0.0,0.0,False,0,2429
0.0,0.0,0.0,0.0,0.0,0.0,0.0,0.0,0.0,0.0,0.0,0.0,0.0,0.0,0.0,False,0,2426
-1.0013760328292847,-0.018300000578165054,0.1705559939146042,1.933750033378601,-2.747499942779541,1.2687499523162842,-0.16505999863147736,-0.04172000288963318,-0.35294002294540405,0.0,0.0,0.0,0.0,0.0,0.0,False,0,2445
0.0,0.0,0.0,0.0,0.0,0.0,0.0,0.0,0.0,0.00439453125,0.9873046875,0.20751953125,0.0,0.0,0.0,False,0,2446
0.0,0.0,0.0,0.0,0.0,0.0,0.0,0.0,0.0,0.0,0.0,0.0,0.0,0.0,0.0,False,0,2443
-0.994055986404419,-0.016103999689221382,0.18226799368858337,1.881250023841858,-2.913749933242798,1.4262499809265137,-0.16492000222206116,-0.04438000172376633,-0.3655399978160858,0.0,0.0,0.0,0.0,0.0,0.0,False,0,2462
0.0,0.0,0.0,0.0,0.0,0.0,0.0,0.0,0.0,-0.0078125,1.0087890625,0.21826171875,0.0,0.0,0.0,False,0,2463
0.0,0.0,0.0,0.0,0.0,0.0,0.0,0.0,0.0,0.0,0.0,0.0,0.0,0.0,0.0,False,0,2460
-0.9991799592971802,-0.018300000578165054,0.17641200125217438,1.8025000095367432,-2.6862499713897705,1.3562500476837158,-0.16967999935150146,-0.0406000018119812,-0.35770002007484436,0.0,0.0,0.0,0.0,0.0,0.0,False,0,2480
0.0,0.0,0.0,0.0,0.0,0.0,0.0,0.0,0.0,-0.00390625,1.001953125,0.22314453125,0.0,0.0,0.0,False,0,2481
0.0,0.0,0.0,0.0,0.0,0.0,0.0,0.0,0.0,0.0,0.0,0.0,0.0,0.0,0.0,False,0,2478
-0.9991799592971802,-0.01903199963271618,0.1815359890460968,1.784999966621399,-2.8350000381469727,1.225000023841858,-0.16142000257968903,-0.04872000217437744,-0.3613400161266327,0.0,0.0,0.0,0.0,0.0,0.0,False,0,2497
0.0,0.0,0.0,0.0,0.0,0.0,0.0,0.0,0.0,-0.00634765625,1.00927734375,0.2109375,0.0,0.0,0.0,False,0,2498
0.0,0.0,0.0,0.0,0.0,0.0,0.0,0.0,0.0,0.0,0.0,0.0,0.0,0.0,0.0,False,0,2495
-1.0072319507598877,-0.020495999604463577,0.17494799196720123,1.9512499570846558,-2.817500114440918,1.190000057220459,-0.16128000617027283,-0.048020001500844955,-0.3623200058937073,0.0,0.0,0.0,0.0,0.0,0.0,False,0,2515
0.0,0.0,0.0,0.0,0.0,0.0,0.0,0.0,0.0,-0.01416015625,1.00537109375,0.20068359375,0.0,0.0,0.0,False,0,2516
0.0,0.0,0.0,0.0,0.0,0.0,0.0,0.0,0.0,0.0,0.0,0.0,0.0,0.0,0.0,False,0,2513
-0.9962520003318787,-0.016103999689221382,0.17641200125217438,1.784999966621399,-2.677500009536743,1.443750023841858,-0.15693999826908112,-0.04004000127315521,-0.3555999994277954,0.0,0.0,0.0,0.0,0.0,0.0,False,0,2532
0.0,0.0,0.0,0.0,0.0,0.0,0.0,0.0,0.0,-0.00927734375,0.98046875,0.20947265625,0.0,0.0,0.0,False,0,2533
0.0,0.0,0.0,0.0,0.0,0.0,0.0,0.0,0.0,0.0,0.0,0.0,0.0,0.0,0.0,False,0,2530
-0.994055986404419,-0.00878399983048439,0.1647000014781952,1.4874999523162842,-3.0012500286102295,1.4524999856948853,-0.1624000072479248,-0.043540000915527344,-0.35840001702308655,0.0,0.0,0.0,0.0,0.0,0.0,False,0,2549
0.0,0.0,0.0,0.0,0.0,0.0,0.0,0.0,0.0,-0.01416015625,0.98779296875,0.19677734375,0.0,0.0,0.0,False,0,2550
0.0,0.0,0.0,0.0,0.0,0.0,0.0,0.0,0.0,0.0,0.0,0.0,0.0,0.0,0.0,False,0,2547
-0.9991799592971802,-0.007319999858736992,0.17202000319957733,1.8025000095367432,-2.8087499141693115,1.2424999475479126,-0.17164000868797302,-0.04633999988436699,-0.3555999994277954,0.0,0.0,0.0,0.0,0.0,0.0,False,0,2567
0.0,0.0,0.0,0.0,0.0,0.0,0.0,0.0,0.0,-0.00537109375,0.994140625,0.18994140625,0.0,0.0,0.0,False,0,2568
0.0,0.0,0.0,0.0,0.0,0.0,0.0,0.0,0.0,0.0,0.0,0.0,0.0,0.0,0.0,False,0,2565
-0.9962520003318787,-0.011711999773979187,0.18007199466228485,1.846250057220459,-3.018749952316284,1.0762499570846558,-0.16967999935150146,-0.04284000024199486,-0.35853999853134155,0.0,0.0,0.0,0.0,0.0,0.0,False,0,2584
0.0,0.0,0.0,0.0,0.0,0.0,0.0,0.0,0.0,0.00390625,0.9873046875,0.19580078125,0.0,0.0,0.0,False,0,2585
0.0,0.0,0.0,0.0,0.0,0.0,0.0,0.0,0.0,0.0,0.0,0.0,0.0,0.0,0.0,False,0,2582
-0.994055986404419,-0.007319999858736992,0.1844639927148819,1.8899999856948853,-2.9487500190734863,1.225000023841858,-0.17472000420093536,-0.045500002801418304,-0.35812002420425415,0.0,0.0,0.0,0.0,0.0,0.0,False,0,2602
0.0,0.0,0.0,0.0,0.0,0.0,0.0,0.0,0.0,0.001953125,0.99169921875,0.21240234375,0.0,0.0,0.0,False,0,2603
0.0,0.0,0.0,0.0,0.0,0.0,0.0,0.0,0.0,0.0,0.0,0.0,0.0,0.0,0.0,False,0,2600
-1.0006439685821533,-0.00878399983048439,0.18007199466228485,1.784999966621399,-2.791249990463257,1.443750023841858,-0.163100004196167,-0.04942000284790993,-0.3668000102043152,0.0,0.0,0.0,0.0,0.0,0.0,False,0,2619
0.0,0.0,0.0,0.0,0.0,0.0,0.0,0.0,0.0,-0.0029296875,0.9931640625,0.21533203125,0.0,0.0,0.0,False,0,2620
0.0,0.0,0.0,0.0,0.0,0.0,0.0,0.0,0.0,0.0,0.0,0.0,0.0,0.0,0.0,False,0,2617
-0.9962520003318787,-0.013907999731600285,0.17421600222587585,1.881250023841858,-3.0712499618530273,1.2337499856948853,-0.16632001101970673,-0.05124000087380409,-0.3606400191783905,0.0,0.0,0.0,0.0,0.0,0.0,False,0,2636
0.0,0.0,0.0,0.0,0.0,0.0,0.0,0.0,0.0,-0.01513671875,0.98876953125,0.20068359375,0.0,0.0,0.0,False,0,2637
0.0,0.0,0.0,0.0,0.0,0.0,0.0,0.0,0.0,0.0,0.0,0.0,0.0,0.0,0.0,False,0,2634
-0.9969840049743652,-0.011711999773979187,0.17128799855709076,1.6362500190734863,-2.721250057220459,1.2512500286102295,-0.17108000814914703,-0.043540000915527344,-0.3562999963760376,0.0,0.0,0.0,0.0,0.0,0.0,False,0,2654
0.0,0.0,0.0,0.0,0.0,0.0,0.0,0.0,0.0,0.00634765625,0.99462890625,0.19580078125,0.0,0.0,0.0,False,0,2655
0.0,0.0,0.0,0.0,0.0,0.0,0.0,0.0,0.0,0.0,0.0,0.0,0.0,0.0,0.0,False,0,2652
-0.9947879910469055,-0.016103999689221382,0.17128799855709076,1.618749976158142,-2.6075000762939453,1.3300000429153442,-0.17205999791622162,-0.048580002039670944,-0.3567200005054474,0.0,0.0,0.0,0.0,0.0,0.0,False,0,2671
0.0,0.0,0.0,0.0,0.0,0.0,0.0,0.0,0.0,0.01220703125,0.994140625,0.1875,0.0,0.0,0.0,False,0,2672
0.0,0.0,0.0,0.0,0.0,0.0,0.0,0.0,0.0,0.0,0.0,0.0,0.0,0.0,0.0,False,0,2669
-0.9933239817619324,-0.010247999802231789,0.17348399758338928,1.7062499523162842,-3.036250114440918,1.3387500047683716,-0.16982001066207886,-0.050680000334978104,-0.3514000177383423,0.0,0.0,0.0,0.0,0.0,0.0,False,0,2689
0.0,0.0,0.0,0.0,0.0,0.0,0.0,0.0,0.0,-0.0068359375,0.9951171875,0.19775390625,0.0,0.0,0.0,False,0,2690
0.0,0.0,0.0,0.0,0.0,0.0,0.0,0.0,0.0,0.0,0.0,0.0,0.0,0.0,0.0,False,0,2687
-0.9984479546546936,-0.014639999717473984,0.1676279902458191,1.6362500190734863,-3.3424999713897705,1.277500033378601,-0.1730400025844574,-0.044940002262592316,-0.3568600118160248,0.0,0.0,0.0,0.0,0.0,0.0,False,0,2706
0.0,0.0,0.0,0.0,0.0,0.0,0.0,0.0,0.0,-0.017578125,0.99658203125,0.20703125,0.0,0.0,0.0,False,0,2707
0.0,0.0,0.0,0.0,0.0,0.0,0.0,0.0,0.0,0.0,0.0,0.0,0.0,0.0,0.0,False,0,2704
-1.007964015007019,-0.0058559998869895935,0.18007199466228485,1.846250057220459,-2.887500047683716,1.1375000476837158,-0.172760009765625,-0.04255999997258186,-0.3623200058937073,0.0,0.0,0.0,0.0,0.0,0.0,False,0,2723
0.0,0.0,0.0,0.0,0.0,0.0,0.0,0.0,0.0,-0.0107421875,0.998046875,0.2138671875,0.0,0.0,0.0,False,0,2724
0.0,0.0,0.0,0.0,0.0,0.0,0.0,0.0,0.0,0.0,0.0,0.0,0.0,0.0,0.0,False,0,2721
-0.994055986404419,-0.00951599981635809,0.17494799196720123,1.6362500190734863,-2.8524999618530273,1.225000023841858,-0.1723400056362152,-0.043960001319646835,-0.35770002007484436,0.0,0.0,0.0,0.0,0.0,0.0,False,0,2741
0.0,0.0,0.0,0.0,0.0,0.0,0.0,0.0,0.0,-0.00830078125,0.99169921875,0.21337890625,0.0,0.0,0.0,False,0,2742
0.0,0.0,0.0,0.0,0.0,0.0,0.0,0.0,0.0,0.0,0.0,0.0,0.0,0.0,0.0,False,0,2739
-0.9903959631919861,-0.013907999731600285,0.17128799855709076,1.6537500619888306,-2.598750114440918,1.225000023841858,-0.1724800020456314,-0.04508000239729881,-0.3598000109195709,0.0,0.0,0.0,0.0,0.0,0.0,False,0,2758
0.0,0.0,0.0,0.0,0.0,0.0,0.0,0.0,0.0,-0.0068359375,1.00927734375,0.203125,0.0,0.0,0.0,False,0,2759
0.0,0.0,0.0,0.0,0.0,0.0,0.0,0.0,0.0,0.0,0.0,0.0,0.0,0.0,0.0,False,0,2756
-0.9925919771194458,-0.018300000578165054,0.17421600222587585,1.7762500047683716,-2.983750104904175,1.3212499618530273,-0.1679999977350235,-0.04130000248551369,-0.36371999979019165,0.0,0.0,0.0,0.0,0.0,0.0,False,0,2775
0.0,0.0,0.0,0.0,0.0,0.0,0.0,0.0,0.0,-0.001953125,1.009765625,0.20751953125,0.0,0.0,0.0,False,0,2776
0.0,0.0,0.0,0.0,0.0,0.0,0.0,0.0,0.0,0.0,0.0,0.0,0.0,0.0,0.0,False,0,2773
-1.0013760328292847,-0.011711999773979187,0.1903200000524521,1.6712499856948853,-2.8524999618530273,1.4874999523162842,-0.16030000150203705,-0.04508000239729881,-0.3602200150489807,0.0,0.0,0.0,0.0,0.0,0.0,False,0,2792
0.0,0.0,0.0,0.0,0.0,0.0,0.0,0.0,0.0,-0.0087890625,0.984375,0.19970703125,0.0,0.0,0.0,False,0,2793
0.0,0.0,0.0,0.0,0.0,0.0,0.0,0.0,0.0,0.0,0.0,0.0,0.0,0.0,0.0,False,0,2790
-1.0050359964370728,-0.010979999788105488,0.18080399930477142,1.837499976158142,-2.7562499046325684,1.3212499618530273,-0.172760009765625,-0.04718000069260597,-0.3607800006866455,0.0,0.0,0.0,0.0,0.0,0.0,False,0,2809
0.0,0.0,0.0,0.0,0.0,0.0,0.0,0.0,0.0,0.001953125,0.99169921875,0.193359375,0.0,0.0,0.0,False,0,2810
0.0,0.0,0.0,0.0,0.0,0.0,0.0,0.0,0.0,0.0,0.0,0.0,0.0,0.0,0.0,False,0,2807
-0.994055986404419,-0.01903199963271618,0.18665999174118042,1.75,-2.6162500381469727,1.2599999904632568,-0.16548000276088715,-0.042980000376701355,-0.3551799952983856,0.0,0.0,0.0,0.0,0.0,0.0,False,0,2829
0.0,0.0,0.0,0.0,0.0,0.0,0.0,0.0,0.0,-0.00439453125,0.99560546875,0.18505859375,0.0,0.0,0.0,False,0,2830
0.0,0.0,0.0,0.0,0.0,0.0,0.0,0.0,0.0,0.0,0.0,0.0,0.0,0.0,0.0,False,0,2827
-0.9977160096168518,-0.012443999759852886,0.1786080002784729,1.881250023841858,-2.8612499237060547,1.3562500476837158,-0.1682800054550171,-0.052080001682043076,-0.3571400046348572,0.0,0.0,0.0,0.0,0.0,0.0,False,0,2846
0.0,0.0,0.0,0.0,0.0,0.0,0.0,0.0,0.0,-0.001953125,0.9912109375,0.18017578125,0.0,0.0,0.0,False,0,2847
0.0,0.0,0.0,0.0,0.0,0.0,0.0,0.0,0.0,0.0,0.0,0.0,0.0,0.0,0.0,False,0,2844
-0.9984479546546936,-0.019763998687267303,0.17787599563598633,1.837499976158142,-2.84375,1.3212499618530273,-0.16352000832557678,-0.04522000253200531,-0.3613400161266327,0.0,0.0,0.0,0.0,0.0,0.0,False,0,2863
0.0,0.0,0.0,0.0,0.0,0.0,0.0,0.0,0.0,0.00927734375,0.99609375,0.19140625,0.0,0.0,0.0,False,0,2864
0.0,0.0,0.0,0.0,0.0,0.0,0.0,0.0,0.0,0.0,0.0,0.0,0.0,0.0,0.0,False,0,2861
-0.9984479546546936,-0.011711999773979187,0.17641200125217438,1.837499976158142,-2.7825000286102295,1.3212499618530273,-0.16436000168323517,-0.04102000221610069,-0.35868000984191895,0.0,0.0,0.0,0.0,0.0,0.0,False,0,2880
0.0,0.0,0.0,0.0,0.0,0.0,0.0,0.0,0.0,0.00830078125,1.009765625,0.193359375,0.0,0.0,0.0,False,0,2881
0.0,0.0,0.0,0.0,0.0,0.0,0.0,0.0,0.0,0.0,0.0,0.0,0.0,0.0,0.0,False,0,2878
-0.9962520003318787,-0.02122800052165985,0.17714399099349976,1.9249999523162842,-2.703749895095825,1.3037500381469727,-0.16604000329971313,-0.04255999997258186,-0.35853999853134155,0.0,0.0,0.0,0.0,0.0,0.0,False,0,2897
0.0,0.0,0.0,0.0,0.0,0.0,0.0,0.0,0.0,0.00341796875,0.99853515625,0.19091796875,0.0,0.0,0.0,False,0,2898
0.0,0.0,0.0,0.0,0.0,0.0,0.0,0.0,0.0,0.0,0.0,0.0,0.0,0.0,0.0,False,0,2895
-1.0057679414749146,-0.019763998687267303,0.17348399758338928,1.9075000286102295,-2.765000104904175,1.3650000095367432,-0.16674000024795532,-0.04018000140786171,-0.36288002133369446,0.0,0.0,0.0,0.0,0.0,0.0,False,0,2915
0.0,0.0,0.0,0.0,0.0,0.0,0.0,0.0,0.0,0.013671875,1.0,0.1875,0.0,0.0,0.0,False,0,2916
0.0,0.0,0.0,0.0,0.0,0.0,0.0,0.0,0.0,0.0,0.0,0.0,0.0,0.0,0.0,False,0,2913
-0.9977160096168518,-0.01903199963271618,0.1727519929409027,1.8550000190734863,-2.677500009536743,1.3737499713897705,-0.1679999977350235,-0.04844000190496445,-0.36820000410079956,0.0,0.0,0.0,0.0,0.0,0.0,False,0,2932
0.0,0.0,0.0,0.0,0.0,0.0,0.0,0.0,0.0,0.013671875,0.99951171875,0.18310546875,0.0,0.0,0.0,False,0,2933
0.0,0.0,0.0,0.0,0.0,0.0,0.0,0.0,0.0,0.0,0.0,0.0,0.0,0.0,0.0,False,0,2930
-0.9969840049743652,-0.010979999788105488,0.18519599735736847,1.627500057220459,-2.6337499618530273,1.225000023841858,-0.16660000383853912,-0.0457800030708313,-0.36371999979019165,0.0,0.0,0.0,0.0,0.0,0.0,False,0,2950
0.0,0.0,0.0,0.0,0.0,0.0,0.0,0.0,0.0,0.0029296875,1.00732421875,0.1904296875,0.0,0.0,0.0,False,0,2951
0.0,0.0,0.0,0.0,0.0,0.0,0.0,0.0,0.0,0.0,0.0,0.0,0.0,0.0,0.0,False,0,2948
-0.9947879910469055,-0.007319999858736992,0.1786080002784729,1.4787499904632568,-2.380000114440918,1.3650000095367432,-0.15680000185966492,-0.041440002620220184,-0.35784000158309937,0.0,0.0,0.0,0.0,0.0,0.0,False,0,2967
0.0,0.0,0.0,0.0,0.0,0.0,0.0,0.0,0.0,0.0078125,0.9970703125,0.2041015625,0.0,0.0,0.0,False,0,2968
0.0,0.0,0.0,0.0,0.0,0.0,0.0,0.0,0.0,0.0,0.0,0.0,0.0,0.0,0.0,False,0,2965
-0.9984479546546936,-0.011711999773979187,0.17494799196720123,1.9249999523162842,-2.651250123977661,1.1987500190734863,-0.15890000760555267,-0.0459199994802475,-0.35965999960899353,0.0,0.0,0.0,0.0,0.0,0.0,False,0,2984
0.0,0.0,0.0,0.0,0.0,0.0,0.0,0.0,0.0,0.01171875,0.99658203125,0.197265625,0.0,0.0,0.0,False,0,2985
0.0,0.0,0.0,0.0,0.0,0.0,0.0,0.0,0.0,0.0,0.0,0.0,0.0,0.0,0.0,False,0,2982
-0.9947879910469055,-0.00878399983048439,0.1815359890460968,1.8287500143051147,-2.5637500286102295,1.2599999904632568,-0.16561999917030334,-0.046480000019073486,-0.36792001128196716,0.0,0.0,0.0,0.0,0.0,0.0,False,0,3002
0.0,0.0,0.0,0.0,0.0,0.0,0.0,0.0,0.0,0.0048828125,0.994140625,0.20068359375,0.0,0.0,0.0,False,0,3003
0.0,0.0,0.0,0.0,0.0,0.0,0.0,0.0,0.0,0.0,0.0,0.0,0.0,0.0,0.0,False,0,3000
-0.9933239817619324,-0.015371999703347683,0.18519599735736847,1.8287500143051147,-2.677500009536743,1.2599999904632568,-0.16464000940322876,-0.04284000024199486,-0.35728001594543457,0.0,0.0,0.0,0.0,0.0,0.0,False,0,3019
0.0,0.0,0.0,0.0,0.0,0.0,0.0,0.0,0.0,-0.00830078125,0.9853515625,0.20654296875,0.0,0.0,0.0,False,0,3020
0.0,0.0,0.0,0.0,0.0,0.0,0.0,0.0,0.0,0.0,0.0,0.0,0.0,0.0,0.0,False,0,3017
-1.0006439685821533,-0.013907999731600285,0.17714399099349976,1.8200000524520874,-2.6337499618530273,1.3212499618530273,-0.1671600043773651,-0.049000002443790436,-0.35420000553131104,0.0,0.0,0.0,0.0,0.0,0.0,False,0,3037
0.0,0.0,0.0,0.0,0.0,0.0,0.0,0.0,0.0,-0.01318359375,0.9794921875,0.20458984375,0.0,0.0,0.0,False,0,3038
0.0,0.0,0.0,0.0,0.0,0.0,0.0,0.0,0.0,0.0,0.0,0.0,0.0,0.0,0.0,False,0,3035
-0.9991799592971802,-0.020495999604463577,0.1844639927148819,1.9162499904632568,-2.6862499713897705,1.4350000619888306,-0.16352000832557678,-0.03807999938726425,-0.35798001289367676,0.0,0.0,0.0,0.0,0.0,0.0,False,0,3054
0.0,0.0,0.0,0.0,0.0,0.0,0.0,0.0,0.0,-0.0068359375,0.97705078125,0.19287109375,0.0,0.0,0.0,False,0,3055
0.0,0.0,0.0,0.0,0.0,0.0,0.0,0.0,0.0,0.0,0.0,0.0,0.0,0.0,0.0,False,0,3052
-1.0072319507598877,-0.013907999731600285,0.17933999001979828,1.7412500381469727,-2.8262500762939453,1.5137499570846558,-0.1677200049161911,-0.045500002801418304,-0.355320006608963,0.0,0.0,0.0,0.0,0.0,0.0,False,0,3071
0.0,0.0,0.0,0.0,0.0,0.0,0.0,0.0,0.0,0.01025390625,0.98974609375,0.20458984375,0.0,0.0,0.0,False,0,3072
0.0,0.0,0.0,0.0,0.0,0.0,0.0,0.0,0.0,0.0,0.0,0.0,0.0,0.0,0.0,False,0,3069
-0.9947879910469055,-0.011711999773979187,0.1815359890460968,1.7324999570846558,-2.5199999809265137,1.2424999475479126,-0.1684200018644333,-0.04382000118494034,-0.3562999963760376,0.0,0.0,0.0,0.0,0.0,0.0,False,0,3089
0.0,0.0,0.0,0.0,0.0,0.0,0.0,0.0,0.0,0.02099609375,0.99853515625,0.19873046875,0.0,0.0,0.0,False,0,3090
0.0,0.0,0.0,0.0,0.0,0.0,0.0,0.0,0.0,0.0,0.0,0.0,0.0,0.0,0.0,False,0,3087
-0.9947879910469055,-0.00878399983048439,0.18299999833106995,1.846250057220459,-2.983750104904175,1.1462500095367432,-0.1570800095796585,-0.0457800030708313,-0.3655399978160858,0.0,0.0,0.0,0.0,0.0,0.0,False,0,3106
0.0,0.0,0.0,0.0,0.0,0.0,0.0,0.0,0.0,0.0029296875,0.998046875,0.19580078125,0.0,0.0,0.0,False,0,3107
0.0,0.0,0.0,0.0,0.0,0.0,0.0,0.0,0.0,0.0,0.0,0.0,0.0,0.0,0.0,False,0,3104
-0.9903959631919861,-0.011711999773979187,0.18007199466228485,1.6887500286102295,-2.581249952316284,1.2424999475479126,-0.16380000114440918,-0.044520001858472824,-0.36456000804901123,0.0,0.0,0.0,0.0,0.0,0.0,False,0,3124
0.0,0.0,0.0,0.0,0.0,0.0,0.0,0.0,0.0,-0.01171875,0.98974609375,0.203125,0.0,0.0,0.0,False,0,3125
0.0,0.0,0.0,0.0,0.0,0.0,0.0,0.0,0.0,0.0,0.0,0.0,0.0,0.0,0.0,False,0,3122
-0.9933239817619324,-0.014639999717473984,0.17202000319957733,1.6974999904632568,-2.817500114440918,1.4700000286102295,-0.15652000904083252,-0.04102000221610069,-0.35728001594543457,0.0,0.0,0.0,0.0,0.0,0.0,False,0,3141
0.0,0.0,0.0,0.0,0.0,0.0,0.0,0.0,0.0,-0.0087890625,0.9970703125,0.2060546875,0.0,0.0,0.0,False,0,3142
0.0,0.0,0.0,0.0,0.0,0.0,0.0,0.0,0.0,0.0,0.0,0.0,0.0,0.0,0.0,False,0,3139
-0.9977160096168518,-0.010979999788105488,0.17494799196720123,1.9075000286102295,-2.668750047683716,1.2424999475479126,-0.16688001155853271,-0.047600001096725464,-0.36484000086784363,0.0,0.0,0.0,0.0,0.0,0.0,False,0,3158
0.0,0.0,0.0,0.0,0.0,0.0,0.0,0.0,0.0,0.00146484375,0.986328125,0.201171875,0.0,0.0,0.0,False,0,3159
0.0,0.0,0.0,0.0,0.0,0.0,0.0,0.0,0.0,0.0,0.0,0.0,0.0,0.0,0.0,False,0,3156
-0.9969840049743652,-0.011711999773979187,0.16835999488830566,1.5225000381469727,-2.651250123977661,1.3125,-0.16688001155853271,-0.04480000212788582,-0.3607800006866455,0.0,0.0,0.0,0.0,0.0,0.0,False,0,3175
0.0,0.0,0.0,0.0,0.0,0.0,0.0,0.0,0.0,-0.0126953125,0.9658203125,0.2177734375,0.0,0.0,0.0,False,0,3176
0.0,0.0,0.0,0.0,0.0,0.0,0.0,0.0,0.0,0.0,0.0,0.0,0.0,0.0,0.0,False,0,3173
-0.9962520003318787,-0.015371999703347683,0.1647000014781952,1.7237499952316284,-2.8524999618530273,1.2862499952316284,-0.1682800054550171,-0.04213999956846237,-0.3610600233078003,0.0,0.0,0.0,0.0,0.0,0.0,False,0,3192
0.0,0.0,0.0,0.0,0.0,0.0,0.0,0.0,0.0,-0.01025390625,0.96875,0.2255859375,0.0,0.0,0.0,False,0,3193
0.0,0.0,0.0,0.0,0.0,0.0,0.0,0.0,0.0,0.0,0.0,0.0,0.0,0.0,0.0,False,0,3190
-0.9984479546546936,-0.020495999604463577,0.18299999833106995,1.6800000667572021,-2.8262500762939453,1.2512500286102295,-0.17444001138210297,-0.04676000028848648,-0.3560200035572052,0.0,0.0,0.0,0.0,0.0,0.0,False,0,3210
0.0,0.0,0.0,0.0,0.0,0.0,0.0,0.0,0.0,-0.00537109375,0.98388671875,0.21630859375,0.0,0.0,0.0,False,0,3211
0.0,0.0,0.0,0.0,0.0,0.0,0.0,0.0,0.0,0.0,0.0,0.0,0.0,0.0,0.0,False,0,3208
-1.0013760328292847,-0.01756799966096878,0.1676279902458191,1.881250023841858,-2.8612499237060547,1.3562500476837158,-0.16114000976085663,-0.03220000118017197,-0.36288002133369446,0.0,0.0,0.0,0.0,0.0,0.0,False,0,3227
0.0,0.0,0.0,0.0,0.0,0.0,0.0,0.0,0.0,-0.01806640625,0.9873046875,0.22900390625,0.0,0.0,0.0,False,0,3228
0.0,0.0,0.0,0.0,0.0,0.0,0.0,0.0,0.0,0.0,0.0,0.0,0.0,0.0,0.0,False,0,3225
-0.9984479546546936,-0.016103999689221382,0.17421600222587585,1.7937500476837158,-2.677500009536743,1.1462500095367432,-0.16688001155853271,-0.047600001096725464,-0.3519600033760071,0.0,0.0,0.0,0.0,0.0,0.0,False,0,3262
0.0,0.0,0.0,0.0,0.0,0.0,0.0,0.0,0.0,-0.00537109375,0.99365234375,0.20751953125,0.0,0.0,0.0,False,0,3263
0.0,0.0,0.0,0.0,0.0,0.0,0.0,0.0,0.0,0.0,0.0,0.0,0.0,0.0,0.0,False,0,3260
-0.9991799592971802,-0.00951599981635809,0.1786080002784729,2.091249942779541,-3.0975000858306885,1.4524999856948853,-0.1673000007867813,-0.04732000082731247,-0.3515399992465973,0.0,0.0,0.0,0.0,0.0,0.0,False,0,3279
0.0,0.0,0.0,0.0,0.0,0.0,0.0,0.0,0.0,-0.0146484375,0.9951171875,0.1953125,0.0,0.0,0.0,False,0,3280
0.0,0.0,0.0,0.0,0.0,0.0,0.0,0.0,0.0,0.0,0.0,0.0,0.0,0.0,0.0,False,0,3269
-0.9889319539070129,-0.011711999773979187,0.17421600222587585,1.8025000095367432,-2.799999952316284,1.3387500047683716,-0.16660000383853912,-0.04004000127315521,-0.3560200035572052,0.0,0.0,0.0,0.0,0.0,0.0,False,0,3292
0.0,0.0,0.0,0.0,0.0,0.0,0.0,0.0,0.0,-0.00634765625,1.00927734375,0.19921875,0.0,0.0,0.0,False,0,3293
0.0,0.0,0.0,0.0,0.0,0.0,0.0,0.0,0.0,0.0,0.0,0.0,0.0,0.0,0.0,False,0,3284
-0.9984479546546936,-0.013175999745726585,0.17128799855709076,1.8112499713897705,-2.721250057220459,1.2862499952316284,-0.16688001155853271,-0.047600001096725464,-0.3558800220489502,0.0,0.0,0.0,0.0,0.0,0.0,False,0,3304
0.0,0.0,0.0,0.0,0.0,0.0,0.0,0.0,0.0,-0.00537109375,0.99658203125,0.1953125,0.0,0.0,0.0,False,0,3305
0.0,0.0,0.0,0.0,0.0,0.0,0.0,0.0,0.0,0.0,0.0,0.0,0.0,0.0,0.0,False,0,3301
-1.0021079778671265,-0.010979999788105488,0.16543199121952057,1.8287500143051147,-2.765000104904175,1.225000023841858,-0.163100004196167,-0.041440002620220184,-0.3516800105571747,0.0,0.0,0.0,0.0,0.0,0.0,False,0,3316
0.0,0.0,0.0,0.0,0.0,0.0,0.0,0.0,0.0,-0.01611328125,0.9921875,0.18798828125,0.0,0.0,0.0,False,0,3317
0.0,0.0,0.0,0.0,0.0,0.0,0.0,0.0,0.0,0.0,0.0,0.0,0.0,0.0,0.0,False,0,3314
-1.0013760328292847,-0.013175999745726585,0.1786080002784729,1.7412500381469727,-2.966249942779541,1.4175000190734863,-0.172760009765625,-0.04718000069260597,-0.34860000014305115,0.0,0.0,0.0,0.0,0.0,0.0,False,0,3328
0.0,0.0,0.0,0.0,0.0,0.0,0.0,0.0,0.0,-0.0185546875,0.98828125,0.20751953125,0.0,0.0,0.0,False,0,3334
0.0,0.0,0.0,0.0,0.0,0.0,0.0,0.0,0.0,0.0,0.0,0.0,0.0,0.0,0.0,False,0,3326
-1.006500005722046,-0.013175999745726585,0.17787599563598633,1.8637499809265137,-2.870000123977661,1.3737499713897705,-0.16505999863147736,-0.04438000172376633,-0.3560200035572052,0.0,0.0,0.0,0.0,0.0,0.0,False,0,3345
0.0,0.0,0.0,0.0,0.0,0.0,0.0,0.0,0.0,-0.01025390625,0.99560546875,0.19970703125,0.0,0.0,0.0,False,0,3347
0.0,0.0,0.0,0.0,0.0,0.0,0.0,0.0,0.0,0.0,0.0,0.0,0.0,0.0,0.0,False,0,3338
-0.9991799592971802,-0.016835998743772507,0.18958799540996552,1.784999966621399,-2.581249952316284,1.3562500476837158,-0.16604000329971313,-0.04844000190496445,-0.3558800220489502,0.0,0.0,0.0,0.0,0.0,0.0,False,0,3356
0.0,0.0,0.0,0.0,0.0,0.0,0.0,0.0,0.0,-0.0009765625,1.00439453125,0.19287109375,0.0,0.0,0.0,False,0,3363
0.0,0.0,0.0,0.0,0.0,0.0,0.0,0.0,0.0,0.0,0.0,0.0,0.0,0.0,0.0,False,0,3353
-0.9925919771194458,-0.016835998743772507,0.1727519929409027,1.6012500524520874,-2.694999933242798,1.3650000095367432,-0.1685599982738495,-0.04997999966144562,-0.3560200035572052,0.0,0.0,0.0,0.0,0.0,0.0,False,0,3369
0.0,0.0,0.0,0.0,0.0,0.0,0.0,0.0,0.0,-0.0078125,0.9931640625,0.205078125,0.0,0.0,0.0,False,0,3376
0.0,0.0,0.0,0.0,0.0,0.0,0.0,0.0,0.0,0.0,0.0,0.0,0.0,0.0,0.0,False,0,3367
-1.0050359964370728,-0.014639999717473984,0.17348399758338928,1.9950000047683716,-2.6600000858306885,1.3125,-0.16911999881267548,-0.05250000208616257,-0.3610600233078003,0.0,0.0,0.0,0.0,0.0,0.0,False,0,3386
0.0,0.0,0.0,0.0,0.0,0.0,0.0,0.0,0.0,-0.01123046875,0.99853515625,0.21435546875,0.0,0.0,0.0,False,0,3388
0.0,0.0,0.0,0.0,0.0,0.0,0.0,0.0,0.0,0.0,0.0,0.0,0.0,0.0,0.0,False,0,3379
-0.994055986404419,-0.012443999759852886,0.17348399758338928,1.8025000095367432,-2.8524999618530273,1.3562500476837158,-0.16660000383853912,-0.048580002039670944,-0.34902000427246094,0.0,0.0,0.0,0.0,0.0,0.0,False,0,3397
0.0,0.0,0.0,0.0,0.0,0.0,0.0,0.0,0.0,-0.0107421875,0.9951171875,0.1943359375,0.0,0.0,0.0,False,0,3403
0.0,0.0,0.0,0.0,0.0,0.0,0.0,0.0,0.0,0.0,0.0,0.0,0.0,0.0,0.0,False,0,3394
-0.9918599724769592,-0.016835998743772507,0.1727519929409027,1.7587499618530273,-2.598750114440918,1.2424999475479126,-0.163100004196167,-0.04438000172376633,-0.3507000207901001,0.0,0.0,0.0,0.0,0.0,0.0,False,0,3414
0.0,0.0,0.0,0.0,0.0,0.0,0.0,0.0,0.0,0.00048828125,0.98876953125,0.2001953125,0.0,0.0,0.0,False,0,3416
0.0,0.0,0.0,0.0,0.0,0.0,0.0,0.0,0.0,0.0,0.0,0.0,0.0,0.0,0.0,False,0,3407
-1.0072319507598877,-0.014639999717473984,0.1727519929409027,1.7937500476837158,-2.6337499618530273,1.3125,-0.16660000383853912,-0.04438000172376633,-0.36316001415252686,0.0,0.0,0.0,0.0,0.0,0.0,False,0,3425
0.0,0.0,0.0,0.0,0.0,0.0,0.0,0.0,0.0,-0.01318359375,0.97900390625,0.20703125,0.0,0.0,0.0,False,0,3432
0.0,0.0,0.0,0.0,0.0,0.0,0.0,0.0,0.0,0.0,0.0,0.0,0.0,0.0,0.0,False,0,3422
-0.9896639585494995,-0.015371999703347683,0.1756799966096878,1.715000033378601,-2.6424999237060547,1.2074999809265137,-0.1628200113773346,-0.05152000114321709,-0.3658200204372406,0.0,0.0,0.0,0.0,0.0,0.0,False,0,3438
0.0,0.0,0.0,0.0,0.0,0.0,0.0,0.0,0.0,0.00634765625,0.99267578125,0.19140625,0.0,0.0,0.0,False,0,3445
0.0,0.0,0.0,0.0,0.0,0.0,0.0,0.0,0.0,0.0,0.0,0.0,0.0,0.0,0.0,False,0,3436
-0.9991799592971802,-0.015371999703347683,0.17202000319957733,1.618749976158142,-2.6337499618530273,1.225000023841858,-0.16674000024795532,-0.04970000311732292,-0.3670800030231476,0.0,0.0,0.0,0.0,0.0,0.0,False,0,3455
0.0,0.0,0.0,0.0,0.0,0.0,0.0,0.0,0.0,0.01318359375,1.00244140625,0.19091796875,0.0,0.0,0.0,False,0,3457
0.0,0.0,0.0,0.0,0.0,0.0,0.0,0.0,0.0,0.0,0.0,0.0,0.0,0.0,0.0,False,0,3448
-0.9903959631919861,-0.015371999703347683,0.18592800199985504,1.7062499523162842,-2.6075000762939453,1.2599999904632568,-0.16884000599384308,-0.04480000212788582,-0.3550400137901306,0.0,0.0,0.0,0.0,0.0,0.0,False,0,3466
0.0,0.0,0.0,0.0,0.0,0.0,0.0,0.0,0.0,0.01123046875,0.99609375,0.1875,0.0,0.0,0.0,False,0,3472
0.0,0.0,0.0,0.0,0.0,0.0,0.0,0.0,0.0,0.0,0.0,0.0,0.0,0.0,0.0,False,0,3463
-1.0013760328292847,-0.013907999731600285,0.18226799368858337,1.6887500286102295,-2.913749933242798,1.4612499475479126,-0.16534000635147095,-0.04718000069260597,-0.3547600209712982,0.0,0.0,0.0,0.0,0.0,0.0,False,0,3483
0.0,0.0,0.0,0.0,0.0,0.0,0.0,0.0,0.0,0.0087890625,1.00244140625,0.18212890625,0.0,0.0,0.0,False,0,3485
0.0,0.0,0.0,0.0,0.0,0.0,0.0,0.0,0.0,0.0,0.0,0.0,0.0,0.0,0.0,False,0,3476
-0.9969840049743652,-0.016103999689221382,0.1815359890460968,1.784999966621399,-2.7300000190734863,1.347499966621399,-0.16898000240325928,-0.044520001858472824,-0.3565800189971924,0.0,0.0,0.0,0.0,0.0,0.0,False,0,3494
0.0,0.0,0.0,0.0,0.0,0.0,0.0,0.0,0.0,0.0029296875,0.9990234375,0.1845703125,0.0,0.0,0.0,False,0,3500
0.0,0.0,0.0,0.0,0.0,0.0,0.0,0.0,0.0,0.0,0.0,0.0,0.0,0.0,0.0,False,0,3491
-1.0021079778671265,-0.012443999759852886,0.16835999488830566,1.96875,-2.703749895095825,1.2687499523162842,-0.16898000240325928,-0.04213999956846237,-0.3600800037384033,0.0,0.0,0.0,0.0,0.0,0.0,False,0,3512
0.0,0.0,0.0,0.0,0.0,0.0,0.0,0.0,0.0,-0.00439453125,1.0009765625,0.197265625,0.0,0.0,0.0,False,0,3514
0.0,0.0,0.0,0.0,0.0,0.0,0.0,0.0,0.0,0.0,0.0,0.0,0.0,0.0,0.0,False,0,3504
-0.9925919771194458,-0.012443999759852886,0.1705559939146042,1.8200000524520874,-2.992500066757202,1.3125,-0.1675800085067749,-0.04438000172376633,-0.3568600118160248,0.0,0.0,0.0,0.0,0.0,0.0,False,0,3525
0.0,0.0,0.0,0.0,0.0,0.0,0.0,0.0,0.0,0.00439453125,1.015625,0.20166015625,0.0,0.0,0.0,False,0,3526
0.0,0.0,0.0,0.0,0.0,0.0,0.0,0.0,0.0,0.0,0.0,0.0,0.0,0.0,0.0,False,0,3517
-0.9925919771194458,-0.015371999703347683,0.18080399930477142,2.047499895095825,-2.528749942779541,1.3212499618530273,-0.16940000653266907,-0.04844000190496445,-0.3549000024795532,0.0,0.0,0.0,0.0,0.0,0.0,False,0,3535
0.0,0.0,0.0,0.0,0.0,0.0,0.0,0.0,0.0,0.001953125,1.00732421875,0.20556640625,0.0,0.0,0.0,False,0,3541
0.0,0.0,0.0,0.0,0.0,0.0,0.0,0.0,0.0,0.0,0.0,0.0,0.0,0.0,0.0,False,0,3532
-1.0043039321899414,-0.013175999745726585,0.1727519929409027,1.7237499952316284,-2.309999942779541,1.2337499856948853,-0.1685599982738495,-0.04633999988436699,-0.3623200058937073,0.0,0.0,0.0,0.0,0.0,0.0,False,0,3552
0.0,0.0,0.0,0.0,0.0,0.0,0.0,0.0,0.0,-0.00732421875,0.99853515625,0.2158203125,0.0,0.0,0.0,False,0,3554
0.0,0.0,0.0,0.0,0.0,0.0,0.0,0.0,0.0,0.0,0.0,0.0,0.0,0.0,0.0,False,0,3545
-0.9918599724769592,-0.020495999604463577,0.1756799966096878,1.837499976158142,-2.694999933242798,1.2162500619888306,-0.17108000814914703,-0.04340000078082085,-0.3623200058937073,0.0,0.0,0.0,0.0,0.0,0.0,False,0,3563
0.0,0.0,0.0,0.0,0.0,0.0,0.0,0.0,0.0,-0.00732421875,1.0048828125,0.2109375,0.0,0.0,0.0,False,0,3569
0.0,0.0,0.0,0.0,0.0,0.0,0.0,0.0,0.0,0.0,0.0,0.0,0.0,0.0,0.0,False,0,3560
-0.9889319539070129,-0.021959999576210976,0.1786080002784729,1.9249999523162842,-2.6075000762939453,1.399999976158142,-0.16099999845027924,-0.04116000235080719,-0.34832000732421875,0.0,0.0,0.0,0.0,0.0,0.0,False,0,3581
0.0,0.0,0.0,0.0,0.0,0.0,0.0,0.0,0.0,-0.0087890625,0.9931640625,0.19970703125,0.0,0.0,0.0,False,0,3583
0.0,0.0,0.0,0.0,0.0,0.0,0.0,0.0,0.0,0.0,0.0,0.0,0.0,0.0,0.0,False,0,3573
-0.9999119639396667,-0.018300000578165054,0.1727519929409027,1.9600000381469727,-2.7825000286102295,1.3387500047683716,-0.16520000994205475,-0.04312000051140785,-0.3617600202560425,0.0,0.0,0.0,0.0,0.0,0.0,False,0,3594
0.0,0.0,0.0,0.0,0.0,0.0,0.0,0.0,0.0,-0.025390625,0.97705078125,0.21337890625,0.0,0.0,0.0,False,0,3595
0.0,0.0,0.0,0.0,0.0,0.0,0.0,0.0,0.0,0.0,0.0,0.0,0.0,0.0,0.0,False,0,3586
-0.9947879910469055,-0.006587999872863293,0.1668960005044937,1.7937500476837158,-3.088750123977661,1.3387500047683716,-0.1729000061750412,-0.04886000230908394,-0.3570000231266022,0.0,0.0,0.0,0.0,0.0,0.0,False,0,3604
0.0,0.0,0.0,0.0,0.0,0.0,0.0,0.0,0.0,-0.01123046875,0.97607421875,0.21337890625,0.0,0.0,0.0,False,0,3610
0.0,0.0,0.0,0.0,0.0,0.0,0.0,0.0,0.0,0.0,0.0,0.0,0.0,0.0,0.0,False,0,3601
-0.9925919771194458,-0.014639999717473984,0.1786080002784729,1.7062499523162842,-3.009999990463257,1.3300000429153442,-0.1729000061750412,-0.046620000153779984,-0.3659600019454956,0.0,0.0,0.0,0.0,0.0,0.0,False,0,3621
0.0,0.0,0.0,0.0,0.0,0.0,0.0,0.0,0.0,-0.01806640625,0.98779296875,0.21533203125,0.0,0.0,0.0,False,0,3623
0.0,0.0,0.0,0.0,0.0,0.0,0.0,0.0,0.0,0.0,0.0,0.0,0.0,0.0,0.0,False,0,3614
-0.9911279678344727,-0.00951599981635809,0.18373200297355652,1.8987500667572021,-2.747499942779541,1.058750033378601,-0.16520000994205475,-0.0457800030708313,-0.36428001523017883,0.0,0.0,0.0,0.0,0.0,0.0,False,0,3632
0.0,0.0,0.0,0.0,0.0,0.0,0.0,0.0,0.0,-0.01318359375,0.98388671875,0.212890625,0.0,0.0,0.0,False,0,3638
0.0,0.0,0.0,0.0,0.0,0.0,0.0,0.0,0.0,0.0,0.0,0.0,0.0,0.0,0.0,False,0,3629
-0.9947879910469055,-0.011711999773979187,0.1815359890460968,1.9774999618530273,-2.6424999237060547,1.1549999713897705,-0.16617999970912933,-0.04508000239729881,-0.36820000410079956,0.0,0.0,0.0,0.0,0.0,0.0,False,0,3649
0.0,0.0,0.0,0.0,0.0,0.0,0.0,0.0,0.0,-0.00927734375,0.9833984375,0.22119140625,0.0,0.0,0.0,False,0,3651
0.0,0.0,0.0,0.0,0.0,0.0,0.0,0.0,0.0,0.0,0.0,0.0,0.0,0.0,0.0,False,0,3642
-0.9947879910469055,-0.013175999745726585,0.18080399930477142,1.837499976158142,-2.668750047683716,1.181249976158142,-0.17416000366210938,-0.047040000557899475,-0.3561600148677826,0.0,0.0,0.0,0.0,0.0,0.0,False,0,3661
0.0,0.0,0.0,0.0,0.0,0.0,0.0,0.0,0.0,-0.005859375,0.98876953125,0.2138671875,0.0,0.0,0.0,False,0,3662
0.0,0.0,0.0,0.0,0.0,0.0,0.0,0.0,0.0,0.0,0.0,0.0,0.0,0.0,0.0,False,0,3658
-0.9984479546546936,-0.00878399983048439,0.1705559939146042,1.7587499618530273,-2.5899999141693115,1.4175000190734863,-0.1673000007867813,-0.04508000239729881,-0.36316001415252686,0.0,0.0,0.0,0.0,0.0,0.0,False,0,3673
0.0,0.0,0.0,0.0,0.0,0.0,0.0,0.0,0.0,-0.00439453125,0.9873046875,0.20751953125,0.0,0.0,0.0,False,0,3679
0.0,0.0,0.0,0.0,0.0,0.0,0.0,0.0,0.0,0.0,0.0,0.0,0.0,0.0,0.0,False,0,3671
-0.9925919771194458,-0.013175999745726585,0.16323599219322205,1.933750033378601,-2.6337499618530273,1.3125,-0.16996000707149506,-0.04466000199317932,-0.35923999547958374,0.0,0.0,0.0,0.0,0.0,0.0,False,0,3690
0.0,0.0,0.0,0.0,0.0,0.0,0.0,0.0,0.0,-0.0048828125,0.99951171875,0.19775390625,0.0,0.0,0.0,False,0,3692
0.0,0.0,0.0,0.0,0.0,0.0,0.0,0.0,0.0,0.0,0.0,0.0,0.0,0.0,0.0,False,0,3683
-0.994055986404419,-0.018300000578165054,0.1705559939146042,1.5924999713897705,-2.8262500762939453,1.3912500143051147,-0.16128000617027283,-0.03710000216960907,-0.3617600202560425,0.0,0.0,0.0,0.0,0.0,0.0,False,0,3701
0.0,0.0,0.0,0.0,0.0,0.0,0.0,0.0,0.0,-0.00537109375,1.0087890625,0.19873046875,0.0,0.0,0.0,False,0,3707
0.0,0.0,0.0,0.0,0.0,0.0,0.0,0.0,0.0,0.0,0.0,0.0,0.0,0.0,0.0,False,0,3698
-0.9955199956893921,-0.015371999703347683,0.1815359890460968,2.0299999713897705,-3.018749952316284,1.3125,-0.16142000257968903,-0.046620000153779984,-0.3619000017642975,0.0,0.0,0.0,0.0,0.0,0.0,False,0,3718
0.0,0.0,0.0,0.0,0.0,0.0,0.0,0.0,0.0,-0.00634765625,1.0009765625,0.2021484375,0.0,0.0,0.0,False,0,3720
0.0,0.0,0.0,0.0,0.0,0.0,0.0,0.0,0.0,0.0,0.0,0.0,0.0,0.0,0.0,False,0,3711
-0.9925919771194458,-0.016103999689221382,0.3638039827346802,1.8287500143051147,-2.6424999237060547,1.399999976158142,-0.16674000024795532,-0.046480000019073486,-0.3606400191783905,0.0,0.0,0.0,0.0,0.0,0.0,False,0,3730
0.0,0.0,0.0,0.0,0.0,0.0,0.0,0.0,0.0,0.0029296875,0.99853515625,0.19873046875,0.0,0.0,0.0,False,0,3731
0.0,0.0,0.0,0.0,0.0,0.0,0.0,0.0,0.0,0.0,0.0,0.0,0.0,0.0,0.0,False,0,3727
-0.994055986404419,-0.01903199963271618,0.18299999833106995,1.9862500429153442,-2.791249990463257,1.3562500476837158,-0.16393999755382538,-0.04213999956846237,-0.36288002133369446,0.0,0.0,0.0,0.0,0.0,0.0,False,0,3742
0.0,0.0,0.0,0.0,0.0,0.0,0.0,0.0,0.0,-0.04150390625,1.00048828125,0.19873046875,0.0,0.0,0.0,False,0,3748
0.0,0.0,0.0,0.0,0.0,0.0,0.0,0.0,0.0,0.0,0.0,0.0,0.0,0.0,0.0,False,0,3740
-0.9962520003318787,-0.015371999703347683,0.18373200297355652,2.0037500858306885,-2.7125000953674316,1.2862499952316284,-0.16632001101970673,-0.04213999956846237,-0.36246001720428467,0.0,0.0,0.0,0.0,0.0,0.0,False,0,3759
0.0,0.0,0.0,0.0,0.0,0.0,0.0,0.0,0.0,-0.06298828125,0.9912109375,0.19970703125,0.0,0.0,0.0,False,0,3761
0.0,0.0,0.0,0.0,0.0,0.0,0.0,0.0,0.0,0.0,0.0,0.0,0.0,0.0,0.0,False,0,3752
-1.0035719871520996,-0.007319999858736992,0.16835999488830566,1.9424999952316284,-2.677500009536743,1.2599999904632568,-0.1624000072479248,-0.046620000153779984,-0.3619000017642975,0.0,0.0,0.0,0.0,0.0,0.0,False,0,3770
0.0,0.0,0.0,0.0,0.0,0.0,0.0,0.0,0.0,-0.0341796875,0.974609375,0.19140625,0.0,0.0,0.0,False,0,3776
0.0,0.0,0.0,0.0,0.0,0.0,0.0,0.0,0.0,0.0,0.0,0.0,0.0,0.0,0.0,False,0,3767
-0.9911279678344727,-0.015371999703347683,0.16909199953079224,1.784999966621399,-2.8787500858306885,1.3912500143051147,-0.16940000653266907,-0.04983999952673912,-0.3555999994277954,0.0,0.0,0.0,0.0,0.0,0.0,False,0,3787
0.0,0.0,0.0,0.0,0.0,0.0,0.0,0.0,0.0,-0.0283203125,0.9697265625,0.185546875,0.0,0.0,0.0,False,0,3789
0.0,0.0,0.0,0.0,0.0,0.0,0.0,0.0,0.0,0.0,0.0,0.0,0.0,0.0,0.0,False,0,3780
-0.9977160096168518,-0.01903199963271618,0.16543199121952057,1.9075000286102295,-2.992500066757202,1.2599999904632568,-0.1677200049161911,-0.047040000557899475,-0.3595200181007385,0.0,0.0,0.0,0.0,0.0,0.0,False,0,3798
0.0,0.0,0.0,0.0,0.0,0.0,0.0,0.0,0.0,-0.0341796875,0.970703125,0.2041015625,0.0,0.0,0.0,False,0,3805
0.0,0.0,0.0,0.0,0.0,0.0,0.0,0.0,0.0,0.0,0.0,0.0,0.0,0.0,0.0,False,0,3795
-0.9991799592971802,-0.01756799966096878,0.17641200125217438,1.6974999904632568,-2.922499895095825,1.443750023841858,-0.16478000581264496,-0.04382000118494034,-0.3568600118160248,0.0,0.0,0.0,0.0,0.0,0.0,False,0,3811
0.0,0.0,0.0,0.0,0.0,0.0,0.0,0.0,0.0,-0.03076171875,0.9755859375,0.20849609375,0.0,0.0,0.0,False,0,3818
0.0,0.0,0.0,0.0,0.0,0.0,0.0,0.0,0.0,0.0,0.0,0.0,0.0,0.0,0.0,False,0,3809
-0.9969840049743652,-0.012443999759852886,0.17787599563598633,1.7062499523162842,-2.922499895095825,1.277500033378601,-0.17149999737739563,-0.04158000275492668,-0.35853999853134155,0.0,0.0,0.0,0.0,0.0,0.0,False,0,3828
0.0,0.0,0.0,0.0,0.0,0.0,0.0,0.0,0.0,-0.01171875,0.97314453125,0.20849609375,0.0,0.0,0.0,False,0,3830
0.0,0.0,0.0,0.0,0.0,0.0,0.0,0.0,0.0,0.0,0.0,0.0,0.0,0.0,0.0,False,0,3821
-0.9955199956893921,-0.006587999872863293,0.1903200000524521,1.7587499618530273,-2.6424999237060547,1.1024999618530273,-0.1723400056362152,-0.046480000019073486,-0.35322001576423645,0.0,0.0,0.0,0.0,0.0,0.0,False,0,3839
0.0,0.0,0.0,0.0,0.0,0.0,0.0,0.0,0.0,-0.00634765625,0.97802734375,0.2001953125,0.0,0.0,0.0,False,0,3845
0.0,0.0,0.0,0.0,0.0,0.0,0.0,0.0,0.0,0.0,0.0,0.0,0.0,0.0,0.0,False,0,3836
-0.9911279678344727,-0.015371999703347683,0.1786080002784729,2.0824999809265137,-3.0712499618530273,1.4524999856948853,-0.1684200018644333,-0.045500002801418304,-0.3549000024795532,0.0,0.0,0.0,0.0,0.0,0.0,False,0,3857
0.0,0.0,0.0,0.0,0.0,0.0,0.0,0.0,0.0,-0.00244140625,0.98876953125,0.201171875,0.0,0.0,0.0,False,0,3859
0.0,0.0,0.0,0.0,0.0,0.0,0.0,0.0,0.0,0.0,0.0,0.0,0.0,0.0,0.0,False,0,3849
-0.9933239817619324,-0.010247999802231789,0.1705559939146042,1.7762500047683716,-2.703749895095825,1.3562500476837158,-0.16617999970912933,-0.048020001500844955,-0.35896000266075134,0.0,0.0,0.0,0.0,0.0,0.0,False,0,3870
0.0,0.0,0.0,0.0,0.0,0.0,0.0,0.0,0.0,-0.009765625,0.98828125,0.1982421875,0.0,0.0,0.0,False,0,3871
0.0,0.0,0.0,0.0,0.0,0.0,0.0,0.0,0.0,0.0,0.0,0.0,0.0,0.0,0.0,False,0,3862
-0.9874680042266846,-0.010979999788105488,0.17421600222587585,1.9600000381469727,-2.747499942779541,1.3737499713897705,-0.16688001155853271,-0.04312000051140785,-0.35910001397132874,0.0,0.0,0.0,0.0,0.0,0.0,False,0,3881
0.0,0.0,0.0,0.0,0.0,0.0,0.0,0.0,0.0,-0.01513671875,0.99267578125,0.2060546875,0.0,0.0,0.0,False,0,3882
0.0,0.0,0.0,0.0,0.0,0.0,0.0,0.0,0.0,0.0,0.0,0.0,0.0,0.0,0.0,False,0,3878
-0.9925919771194458,-0.014639999717473984,0.17128799855709076,1.6449999809265137,-2.799999952316284,1.2337499856948853,-0.1736000031232834,-0.044940002262592316,-0.3704400062561035,0.0,0.0,0.0,0.0,0.0,0.0,False,0,3893
0.0,0.0,0.0,0.0,0.0,0.0,0.0,0.0,0.0,0.00390625,1.005859375,0.197265625,0.0,0.0,0.0,False,0,3899
0.0,0.0,0.0,0.0,0.0,0.0,0.0,0.0,0.0,0.0,0.0,0.0,0.0,0.0,0.0,False,0,3891
-1.0021079778671265,-0.018300000578165054,0.16616399586200714,1.8287500143051147,-2.870000123977661,1.3912500143051147,-0.16632001101970673,-0.04718000069260597,-0.3651200234889984,0.0,0.0,0.0,0.0,0.0,0.0,False,0,3910
0.0,0.0,0.0,0.0,0.0,0.0,0.0,0.0,0.0,-0.00634765625,0.9951171875,0.20654296875,0.0,0.0,0.0,False,0,3912
0.0,0.0,0.0,0.0,0.0,0.0,0.0,0.0,0.0,0.0,0.0,0.0,0.0,0.0,0.0,False,0,3903
-0.9969840049743652,-0.00951599981635809,0.18885599076747894,2.047499895095825,-3.132499933242798,1.4524999856948853,-0.17164000868797302,-0.0508200004696846,-0.35812002420425415,0.0,0.0,0.0,0.0,0.0,0.0,False,0,3921
0.0,0.0,0.0,0.0,0.0,0.0,0.0,0.0,0.0,-0.0009765625,1.00244140625,0.1962890625,0.0,0.0,0.0,False,0,3927
0.0,0.0,0.0,0.0,0.0,0.0,0.0,0.0,0.0,0.0,0.0,0.0,0.0,0.0,0.0,False,0,3918
-0.9962520003318787,-0.02122800052165985,0.18373200297355652,1.7587499618530273,-2.6337499618530273,1.3300000429153442,-0.1673000007867813,-0.04914000257849693,-0.35756000876426697,0.0,0.0,0.0,0.0,0.0,0.0,False,0,3938
0.0,0.0,0.0,0.0,0.0,0.0,0.0,0.0,0.0,-0.01220703125,1.001953125,0.193359375,0.0,0.0,0.0,False,0,3940
0.0,0.0,0.0,0.0,0.0,0.0,0.0,0.0,0.0,0.0,0.0,0.0,0.0,0.0,0.0,False,0,3931
-0.9933239817619324,-0.011711999773979187,0.18885599076747894,2.0999999046325684,-2.6424999237060547,1.4262499809265137,-0.16674000024795532,-0.043960001319646835,-0.36302000284194946,0.0,0.0,0.0,0.0,0.0,0.0,False,0,3949
0.0,0.0,0.0,0.0,0.0,0.0,0.0,0.0,0.0,-0.00390625,1.00244140625,0.203125,0.0,0.0,0.0,False,0,3956
0.0,0.0,0.0,0.0,0.0,0.0,0.0,0.0,0.0,0.0,0.0,0.0,0.0,0.0,0.0,False,0,3946
-0.9999119639396667,-0.016103999689221382,0.16835999488830566,2.1875,-2.6424999237060547,1.1987500190734863,-0.17164000868797302,-0.04480000212788582,-0.36302000284194946,0.0,0.0,0.0,0.0,0.0,0.0,False,0,3962
0.0,0.0,0.0,0.0,0.0,0.0,0.0,0.0,0.0,-0.00439453125,0.98828125,0.19140625,0.0,0.0,0.0,False,0,3969
0.0,0.0,0.0,0.0,0.0,0.0,0.0,0.0,0.0,0.0,0.0,0.0,0.0,0.0,0.0,False,0,3960
-0.9991799592971802,-0.013907999731600285,0.16543199121952057,1.96875,-2.677500009536743,1.3825000524520874,-0.16982001066207886,-0.04676000028848648,-0.3554600179195404,0.0,0.0,0.0,0.0,0.0,0.0,False,0,3979
0.0,0.0,0.0,0.0,0.0,0.0,0.0,0.0,0.0,-0.0078125,0.98291015625,0.2041015625,0.0,0.0,0.0,False,0,3981
0.0,0.0,0.0,0.0,0.0,0.0,0.0,0.0,0.0,0.0,0.0,0.0,0.0,0.0,0.0,False,0,3972
-1.0043039321899414,-0.01903199963271618,0.17641200125217438,1.7587499618530273,-2.6600000858306885,1.2949999570846558,-0.1674399971961975,-0.04788000136613846,-0.3647000193595886,0.0,0.0,0.0,0.0,0.0,0.0,False,0,3990
0.0,0.0,0.0,0.0,0.0,0.0,0.0,0.0,0.0,-0.01220703125,0.9970703125,0.2001953125,0.0,0.0,0.0,False,0,3996
0.0,0.0,0.0,0.0,0.0,0.0,0.0,0.0,0.0,0.0,0.0,0.0,0.0,0.0,0.0,False,0,3987
-0.9991799592971802,-0.012443999759852886,0.17202000319957733,1.5399999618530273,-2.922499895095825,1.347499966621399,-0.1685599982738495,-0.046059999614953995,-0.36834001541137695,0.0,0.0,0.0,0.0,0.0,0.0,False,0,4007
0.0,0.0,0.0,0.0,0.0,0.0,0.0,0.0,0.0,-0.01220703125,0.9970703125,0.2001953125,0.0,0.0,0.0,False,0,4009
0.0,0.0,0.0,0.0,0.0,0.0,0.0,0.0,0.0,0.0,0.0,0.0,0.0,0.0,0.0,False,0,4000
-0.9999119639396667,-0.024887999519705772,0.18226799368858337,2.0737500190734863,-2.476249933242798,1.190000057220459,-0.16617999970912933,-0.04508000239729881,-0.36302000284194946,0.0,0.0,0.0,0.0,0.0,0.0,False,0,4018
0.0,0.0,0.0,0.0,0.0,0.0,0.0,0.0,0.0,0.0009765625,0.98876953125,0.20361328125,0.0,0.0,0.0,False,0,4025
0.0,0.0,0.0,0.0,0.0,0.0,0.0,0.0,0.0,0.0,0.0,0.0,0.0,0.0,0.0,False,0,4015
-0.9947879910469055,-0.01903199963271618,0.1647000014781952,1.933750033378601,-2.703749895095825,1.3300000429153442,-0.16982001066207886,-0.05194000154733658,-0.36932000517845154,0.0,0.0,0.0,0.0,0.0,0.0,False,0,4031
0.0,0.0,0.0,0.0,0.0,0.0,0.0,0.0,0.0,-0.00341796875,0.98095703125,0.2041015625,0.0,0.0,0.0,False,0,4038
0.0,0.0,0.0,0.0,0.0,0.0,0.0,0.0,0.0,0.0,0.0,0.0,0.0,0.0,0.0,False,0,4029
-0.9991799592971802,-0.014639999717473984,0.1698240041732788,1.618749976158142,-2.7387499809265137,1.277500033378601,-0.16926001012325287,-0.05278000235557556,-0.3555999994277954,0.0,0.0,0.0,0.0,0.0,0.0,False,0,4048
0.0,0.0,0.0,0.0,0.0,0.0,0.0,0.0,0.0,-0.005859375,0.990234375,0.19970703125,0.0,0.0,0.0,False,0,4050
0.0,0.0,0.0,0.0,0.0,0.0,0.0,0.0,0.0,0.0,0.0,0.0,0.0,0.0,0.0,False,0,4041
-0.9947879910469055,-0.013907999731600285,0.1786080002784729,1.8200000524520874,-3.009999990463257,1.347499966621399,-0.1726199984550476,-0.046480000019073486,-0.3662400245666504,0.0,0.0,0.0,0.0,0.0,0.0,False,0,4059
0.0,0.0,0.0,0.0,0.0,0.0,0.0,0.0,0.0,-0.00439453125,0.994140625,0.19580078125,0.0,0.0,0.0,False,0,4065
0.0,0.0,0.0,0.0,0.0,0.0,0.0,0.0,0.0,0.0,0.0,0.0,0.0,0.0,0.0,False,0,4056
-1.0013760328292847,-0.011711999773979187,0.1727519929409027,1.5137499570846558,-2.817500114440918,1.3737499713897705,-0.17696000635623932,-0.04213999956846237,-0.36246001720428467,0.0,0.0,0.0,0.0,0.0,0.0,False,0,4076
0.0,0.0,0.0,0.0,0.0,0.0,0.0,0.0,0.0,0.00341796875,0.9912109375,0.18798828125,0.0,0.0,0.0,False,0,4078
0.0,0.0,0.0,0.0,0.0,0.0,0.0,0.0,0.0,0.0,0.0,0.0,0.0,0.0,0.0,False,0,4069
-0.9874680042266846,-0.00951599981635809,0.17787599563598633,1.9424999952316284,-2.913749933242798,1.2949999570846558,-0.16617999970912933,-0.04914000257849693,-0.36862000823020935,0.0,0.0,0.0,0.0,0.0,0.0,False,0,4087
0.0,0.0,0.0,0.0,0.0,0.0,0.0,0.0,0.0,0.01318359375,0.9970703125,0.18896484375,0.0,0.0,0.0,False,0,4093
0.0,0.0,0.0,0.0,0.0,0.0,0.0,0.0,0.0,0.0,0.0,0.0,0.0,0.0,0.0,False,0,4084
-0.9955199956893921,-0.013907999731600285,0.187391996383667,1.6974999904632568,-2.9749999046325684,1.225000023841858,-0.1674399971961975,-0.05488000065088272,-0.36371999979019165,0.0,0.0,0.0,0.0,0.0,0.0,False,0,4105
0.0,0.0,0.0,0.0,0.0,0.0,0.0,0.0,0.0,-0.00048828125,1.00048828125,0.1982421875,0.0,0.0,0.0,False,0,4107
0.0,0.0,0.0,0.0,0.0,0.0,0.0,0.0,0.0,0.0,0.0,0.0,0.0,0.0,0.0,False,0,4097
-0.9962520003318787,-0.012443999759852886,0.18080399930477142,1.7237499952316284,-2.7300000190734863,1.4612499475479126,-0.16198000311851501,-0.04914000257849693,-0.3518200218677521,0.0,0.0,0.0,0.0,0.0,0.0,False,0,4118
0.0,0.0,0.0,0.0,0.0,0.0,0.0,0.0,0.0,0.00341796875,1.005859375,0.1943359375,0.0,0.0,0.0,False,0,4119
0.0,0.0,0.0,0.0,0.0,0.0,0.0,0.0,0.0,0.0,0.0,0.0,0.0,0.0,0.0,False,0,4110
-0.9977160096168518,-0.015371999703347683,0.16835999488830566,2.143749952316284,-2.6862499713897705,1.3037500381469727,-0.16898000240325928,-0.04732000082731247,-0.35923999547958374,0.0,0.0,0.0,0.0,0.0,0.0,False,0,4128
0.0,0.0,0.0,0.0,0.0,0.0,0.0,0.0,0.0,0.0078125,0.99853515625,0.1923828125,0.0,0.0,0.0,False,0,4134
0.0,0.0,0.0,0.0,0.0,0.0,0.0,0.0,0.0,0.0,0.0,0.0,0.0,0.0,0.0,False,0,4125
-0.9933239817619324,-0.008051999844610691,0.17421600222587585,1.7762500047683716,-2.791249990463257,1.408750057220459,-0.1670200079679489,-0.044520001858472824,-0.3562999963760376,0.0,0.0,0.0,0.0,0.0,0.0,False,0,4146
0.0,0.0,0.0,0.0,0.0,0.0,0.0,0.0,0.0,0.00341796875,1.0029296875,0.2001953125,0.0,0.0,0.0,False,0,4148
0.0,0.0,0.0,0.0,0.0,0.0,0.0,0.0,0.0,0.0,0.0,0.0,0.0,0.0,0.0,False,0,4138
-0.994055986404419,-0.010979999788105488,0.1727519929409027,1.9424999952316284,-2.677500009536743,1.2862499952316284,-0.1673000007867813,-0.05040000006556511,-0.364980012178421,0.0,0.0,0.0,0.0,0.0,0.0,False,0,4159
0.0,0.0,0.0,0.0,0.0,0.0,0.0,0.0,0.0,0.0048828125,1.013671875,0.1943359375,0.0,0.0,0.0,False,0,4160
0.0,0.0,0.0,0.0,0.0,0.0,0.0,0.0,0.0,0.0,0.0,0.0,0.0,0.0,0.0,False,0,4151
-0.9962520003318787,-0.021959999576210976,0.17494799196720123,1.846250057220459,-2.9312500953674316,1.1024999618530273,-0.16184000670909882,-0.04690000042319298,-0.3508400022983551,0.0,0.0,0.0,0.0,0.0,0.0,False,0,4169
0.0,0.0,0.0,0.0,0.0,0.0,0.0,0.0,0.0,0.00146484375,1.00244140625,0.19140625,0.0,0.0,0.0,False,0,4176
0.0,0.0,0.0,0.0,0.0,0.0,0.0,0.0,0.0,0.0,0.0,0.0,0.0,0.0,0.0,False,0,4166
-0.9977160096168518,-0.016103999689221382,0.18592800199985504,1.618749976158142,-2.940000057220459,1.5487500429153442,-0.16926001012325287,-0.04466000199317932,-0.3625999987125397,0.0,0.0,0.0,0.0,0.0,0.0,False,0,4182
0.0,0.0,0.0,0.0,0.0,0.0,0.0,0.0,0.0,-0.0048828125,0.99609375,0.18994140625,0.0,0.0,0.0,False,0,4189
0.0,0.0,0.0,0.0,0.0,0.0,0.0,0.0,0.0,0.0,0.0,0.0,0.0,0.0,0.0,False,0,4180
-0.9860039949417114,-0.014639999717473984,0.18299999833106995,1.5750000476837158,-2.896250009536743,1.3387500047683716,-0.17023999989032745,-0.04732000082731247,-0.356440007686615,0.0,0.0,0.0,0.0,0.0,0.0,False,0,4199
0.0,0.0,0.0,0.0,0.0,0.0,0.0,0.0,0.0,-0.009765625,0.99169921875,0.19677734375,0.0,0.0,0.0,False,0,4201
0.0,0.0,0.0,0.0,0.0,0.0,0.0,0.0,0.0,0.0,0.0,0.0,0.0,0.0,0.0,False,0,4192
-0.9955199956893921,-0.006587999872863293,0.17933999001979828,1.7062499523162842,-2.8087499141693115,1.3825000524520874,-0.1670200079679489,-0.04340000078082085,-0.367220014333725,0.0,0.0,0.0,0.0,0.0,0.0,False,0,4210
0.0,0.0,0.0,0.0,0.0,0.0,0.0,0.0,0.0,-0.009765625,0.994140625,0.2001953125,0.0,0.0,0.0,False,0,4216
0.0,0.0,0.0,0.0,0.0,0.0,0.0,0.0,0.0,0.0,0.0,0.0,0.0,0.0,0.0,False,0,4207
-0.9962520003318787,-0.012443999759852886,0.17714399099349976,1.8200000524520874,-2.896250009536743,1.2424999475479126,-0.1629600077867508,-0.04116000235080719,-0.356440007686615,0.0,0.0,0.0,0.0,0.0,0.0,False,0,4227
0.0,0.0,0.0,0.0,0.0,0.0,0.0,0.0,0.0,-0.0009765625,0.990234375,0.19287109375,0.0,0.0,0.0,False,0,4229
0.0,0.0,0.0,0.0,0.0,0.0,0.0,0.0,0.0,0.0,0.0,0.0,0.0,0.0,0.0,False,0,4220
-1.0043039321899414,-0.010979999788105488,0.1676279902458191,1.8725000619888306,-2.6424999237060547,1.1375000476837158,-0.16660000383853912,-0.043960001319646835,-0.3619000017642975,0.0,0.0,0.0,0.0,0.0,0.0,False,0,4238
0.0,0.0,0.0,0.0,0.0,0.0,0.0,0.0,0.0,0.0009765625,0.982421875,0.1962890625,0.0,0.0,0.0,False,0,4244
0.0,0.0,0.0,0.0,0.0,0.0,0.0,0.0,0.0,0.0,0.0,0.0,0.0,0.0,0.0,False,0,4235
-0.9977160096168518,-0.00951599981635809,0.1756799966096878,1.662500023841858,-2.765000104904175,1.3912500143051147,-0.1674399971961975,-0.0459199994802475,-0.3495800197124481,0.0,0.0,0.0,0.0,0.0,0.0,False,0,4256
0.0,0.0,0.0,0.0,0.0,0.0,0.0,0.0,0.0,-0.0009765625,0.998046875,0.20263671875,0.0,0.0,0.0,False,0,4258
0.0,0.0,0.0,0.0,0.0,0.0,0.0,0.0,0.0,0.0,0.0,0.0,0.0,0.0,0.0,False,0,4248
-0.9955199956893921,-0.013175999745726585,0.17714399099349976,1.627500057220459,-2.9049999713897705,1.4524999856948853,-0.16505999863147736,-0.04368000105023384,-0.35392001271247864,0.0,0.0,0.0,0.0,0.0,0.0,False,0,4269
0.0,0.0,0.0,0.0,0.0,0.0,0.0,0.0,0.0,0.00048828125,0.99755859375,0.2060546875,0.0,0.0,0.0,False,0,4270
0.0,0.0,0.0,0.0,0.0,0.0,0.0,0.0,0.0,0.0,0.0,0.0,0.0,0.0,0.0,False,0,4261
-0.9991799592971802,-0.0058559998869895935,0.18007199466228485,1.9862500429153442,-3.0625,1.3212499618530273,-0.16604000329971313,-0.03318000212311745,-0.35322001576423645,0.0,0.0,0.0,0.0,0.0,0.0,False,0,4279
0.0,0.0,0.0,0.0,0.0,0.0,0.0,0.0,0.0,-0.0048828125,0.99560546875,0.205078125,0.0,0.0,0.0,False,0,4285
0.0,0.0,0.0,0.0,0.0,0.0,0.0,0.0,0.0,0.0,0.0,0.0,0.0,0.0,0.0,False,0,4276
-0.9984479546546936,-0.010979999788105488,0.18299999833106995,1.7324999570846558,-2.922499895095825,1.2337499856948853,-0.15652000904083252,-0.037939999252557755,-0.3651200234889984,0.0,0.0,0.0,0.0,0.0,0.0,False,0,4296
0.0,0.0,0.0,0.0,0.0,0.0,0.0,0.0,0.0,-0.0185546875,0.99560546875,0.19873046875,0.0,0.0,0.0,False,0,4298
0.0,0.0,0.0,0.0,0.0,0.0,0.0,0.0,0.0,0.0,0.0,0.0,0.0,0.0,0.0,False,0,4289
-0.9933239817619324,-0.00878399983048439,0.17641200125217438,2.0824999809265137,-2.5637500286102295,1.277500033378601,-0.162540003657341,-0.04690000042319298,-0.3619000017642975,0.0,0.0,0.0,0.0,0.0,0.0,False,0,4307
0.0,0.0,0.0,0.0,0.0,0.0,0.0,0.0,0.0,-0.005859375,1.00634765625,0.19970703125,0.0,0.0,0.0,False,0,4313
0.0,0.0,0.0,0.0,0.0,0.0,0.0,0.0,0.0,0.0,0.0,0.0,0.0,0.0,0.0,False,0,4304
-1.0021079778671265,-0.016835998743772507,0.17641200125217438,1.881250023841858,-2.5199999809265137,1.2162500619888306,-0.1579200029373169,-0.04172000288963318,-0.3565800189971924,0.0,0.0,0.0,0.0,0.0,0.0,False,0,4324
0.0,0.0,0.0,0.0,0.0,0.0,0.0,0.0,0.0,0.00830078125,0.97021484375,0.2109375,0.0,0.0,0.0,False,0,4326
0.0,0.0,0.0,0.0,0.0,0.0,0.0,0.0,0.0,0.0,0.0,0.0,0.0,0.0,0.0,False,0,4317
-0.9911279678344727,-0.016103999689221382,0.18007199466228485,1.933750033378601,-2.6862499713897705,1.2949999570846558,-0.16170001029968262,-0.044520001858472824,-0.3574199974536896,0.0,0.0,0.0,0.0,0.0,0.0,False,0,4336
0.0,0.0,0.0,0.0,0.0,0.0,0.0,0.0,0.0,0.0126953125,0.966796875,0.22607421875,0.0,0.0,0.0,False,0,4337
0.0,0.0,0.0,0.0,0.0,0.0,0.0,0.0,0.0,0.0,0.0,0.0,0.0,0.0,0.0,False,0,4333
-0.9838079810142517,-0.008051999844610691,0.1617719978094101,1.496250033378601,-2.6424999237060547,1.566249966621399,-0.16505999863147736,-0.039340000599622726,-0.355320006608963,0.0,0.0,0.0,0.0,0.0,0.0,False,0,4348
0.0,0.0,0.0,0.0,0.0,0.0,0.0,0.0,0.0,0.00244140625,0.9755859375,0.2099609375,0.0,0.0,0.0,False,0,4354
0.0,0.0,0.0,0.0,0.0,0.0,0.0,0.0,0.0,0.0,0.0,0.0,0.0,0.0,0.0,False,0,4346
-0.9933239817619324,-0.015371999703347683,0.17128799855709076,1.9249999523162842,-2.8612499237060547,1.277500033378601,-0.16422000527381897,-0.043960001319646835,-0.35965999960899353,0.0,0.0,0.0,0.0,0.0,0.0,False,0,4365
0.0,0.0,0.0,0.0,0.0,0.0,0.0,0.0,0.0,0.01123046875,0.9775390625,0.1962890625,0.0,0.0,0.0,False,0,4367
0.0,0.0,0.0,0.0,0.0,0.0,0.0,0.0,0.0,0.0,0.0,0.0,0.0,0.0,0.0,False,0,4358
-0.9947879910469055,-0.016103999689221382,0.1668960005044937,1.9600000381469727,-2.913749933242798,1.2424999475479126,-0.1682800054550171,-0.04676000028848648,-0.3613400161266327,0.0,0.0,0.0,0.0,0.0,0.0,False,0,4376
0.0,0.0,0.0,0.0,0.0,0.0,0.0,0.0,0.0,-0.00830078125,0.97509765625,0.2080078125,0.0,0.0,0.0,False,0,4382
0.0,0.0,0.0,0.0,0.0,0.0,0.0,0.0,0.0,0.0,0.0,0.0,0.0,0.0,0.0,False,0,4373
-1.0013760328292847,-0.01903199963271618,0.1727519929409027,1.7237499952316284,-2.703749895095825,1.3737499713897705,-0.17052000761032104,-0.04690000042319298,-0.3612000048160553,0.0,0.0,0.0,0.0,0.0,0.0,False,0,4393
0.0,0.0,0.0,0.0,0.0,0.0,0.0,0.0,0.0,-0.00341796875,0.984375,0.203125,0.0,0.0,0.0,False,0,4395
0.0,0.0,0.0,0.0,0.0,0.0,0.0,0.0,0.0,0.0,0.0,0.0,0.0,0.0,0.0,False,0,4386
-0.9999119639396667,-0.010247999802231789,0.17714399099349976,1.837499976158142,-2.817500114440918,1.3037500381469727,-0.16674000024795532,-0.04983999952673912,-0.35868000984191895,0.0,0.0,0.0,0.0,0.0,0.0,False,0,4405
0.0,0.0,0.0,0.0,0.0,0.0,0.0,0.0,0.0,0.001953125,0.9951171875,0.2001953125,0.0,0.0,0.0,False,0,4406
0.0,0.0,0.0,0.0,0.0,0.0,0.0,0.0,0.0,0.0,0.0,0.0,0.0,0.0,0.0,False,0,4402
-0.9984479546546936,-0.011711999773979187,0.18665999174118042,1.8637499809265137,-2.7300000190734863,1.347499966621399,-0.16688001155853271,-0.03962000086903572,-0.3662400245666504,0.0,0.0,0.0,0.0,0.0,0.0,False,0,4417
0.0,0.0,0.0,0.0,0.0,0.0,0.0,0.0,0.0,0.009765625,1.00537109375,0.19384765625,0.0,0.0,0.0,False,0,4423
0.0,0.0,0.0,0.0,0.0,0.0,0.0,0.0,0.0,0.0,0.0,0.0,0.0,0.0,0.0,False,0,4415
-0.994055986404419,-0.014639999717473984,0.1815359890460968,2.161250114440918,-2.773750066757202,1.181249976158142,-0.17136000096797943,-0.05460000038146973,-0.3666599988937378,0.0,0.0,0.0,0.0,0.0,0.0,False,0,4435
0.0,0.0,0.0,0.0,0.0,0.0,0.0,0.0,0.0,0.00634765625,1.00732421875,0.189453125,0.0,0.0,0.0,False,0,4437
0.0,0.0,0.0,0.0,0.0,0.0,0.0,0.0,0.0,0.0,0.0,0.0,0.0,0.0,0.0,False,0,4427
-0.9955199956893921,-0.008051999844610691,0.17933999001979828,1.96875,-2.765000104904175,1.4175000190734863,-0.16464000940322876,-0.04872000217437744,-0.3610600233078003,0.0,0.0,0.0,0.0,0.0,0.0,False,0,4448
0.0,0.0,0.0,0.0,0.0,0.0,0.0,0.0,0.0,-0.0087890625,1.001953125,0.19970703125,0.0,0.0,0.0,False,0,4449
0.0,0.0,0.0,0.0,0.0,0.0,0.0,0.0,0.0,0.0,0.0,0.0,0.0,0.0,0.0,False,0,4440
-0.9984479546546936,-0.004391999915242195,0.1786080002784729,1.9774999618530273,-2.7125000953674316,1.3212499618530273,-0.1671600043773651,-0.044520001858472824,-0.35812002420425415,0.0,0.0,0.0,0.0,0.0,0.0,False,0,4458
0.0,0.0,0.0,0.0,0.0,0.0,0.0,0.0,0.0,-0.0126953125,0.99365234375,0.2080078125,0.0,0.0,0.0,False,0,4464
0.0,0.0,0.0,0.0,0.0,0.0,0.0,0.0,0.0,0.0,0.0,0.0,0.0,0.0,0.0,False,0,4455
-0.9918599724769592,-0.015371999703347683,0.17933999001979828,1.9862500429153442,-2.966249942779541,1.2687499523162842,-0.16898000240325928,-0.053060002624988556,-0.36329999566078186,0.0,0.0,0.0,0.0,0.0,0.0,False,0,4475
0.0,0.0,0.0,0.0,0.0,0.0,0.0,0.0,0.0,-0.01416015625,0.99755859375,0.19873046875,0.0,0.0,0.0,False,0,4477
0.0,0.0,0.0,0.0,0.0,0.0,0.0,0.0,0.0,0.0,0.0,0.0,0.0,0.0,0.0,False,0,4468
-0.9918599724769592,-0.008051999844610691,0.18812400102615356,1.8025000095367432,-2.8612499237060547,1.399999976158142,-0.1624000072479248,-0.053620003163814545,-0.35728001594543457,0.0,0.0,0.0,0.0,0.0,0.0,False,0,4487
0.0,0.0,0.0,0.0,0.0,0.0,0.0,0.0,0.0,-0.0107421875,1.0,0.20166015625,0.0,0.0,0.0,False,0,4488
0.0,0.0,0.0,0.0,0.0,0.0,0.0,0.0,0.0,0.0,0.0,0.0,0.0,0.0,0.0,False,0,4484
-1.0013760328292847,-0.015371999703347683,0.17787599563598633,2.2487499713897705,-2.528749942779541,1.1725000143051147,-0.1624000072479248,-0.04997999966144562,-0.35252001881599426,0.0,0.0,0.0,0.0,0.0,0.0,False,0,4499
0.0,0.0,0.0,0.0,0.0,0.0,0.0,0.0,0.0,-0.00732421875,1.0009765625,0.20751953125,0.0,0.0,0.0,False,0,4505
0.0,0.0,0.0,0.0,0.0,0.0,0.0,0.0,0.0,0.0,0.0,0.0,0.0,0.0,0.0,False,0,4497
-1.0182119607925415,-0.00951599981635809,0.16396799683570862,1.96875,-2.817500114440918,1.4524999856948853,-0.1675800085067749,-0.047040000557899475,-0.3620400130748749,0.0,0.0,0.0,0.0,0.0,0.0,False,0,4516
0.0,0.0,0.0,0.0,0.0,0.0,0.0,0.0,0.0,0.01318359375,1.017578125,0.18798828125,0.0,0.0,0.0,False,0,4518
