ax,ay,az,gx,gy,gz,mx,my,mz,hg_ax,hg_ay,hg_az,latitude,longitude,altitude,GPS Lock,rocketState,timeStamp
-1.0021079778671265,-0.018300000578165054,0.16103999316692352,1.627500057220459,-2.0999999046325684,1.3037500381469727,-0.1626800000667572,-0.05194000154733658,-0.35728001594543457,0.0,0.0,0.0,0.0,0.0,0.0,False,0,23
0.0,0.0,0.0,0.0,0.0,0.0,0.0,0.0,0.0,-0.0068359375,0.99609375,0.205078125,0.0,0.0,0.0,False,0,24
0.0,0.0,0.0,0.0,0.0,0.0,0.0,0.0,0.0,0.0,0.0,0.0,0.0,0.0,0.0,False,0,21
-0.9882000088691711,-0.025619998574256897,0.15225599706172943,1.662500023841858,-2.1875,1.3037500381469727,-0.1577800065279007,-0.05446000024676323,-0.35756000876426697,0.0,0.0,0.0,0.0,0.0,0.0,False,0,40
0.0,0.0,0.0,0.0,0.0,0.0,0.0,0.0,0.0,0.01416015625,1.0146484375,0.1953125,0.0,0.0,0.0,False,0,41
0.0,0.0,0.0,0.0,0.0,0.0,0.0,0.0,0.0,0.0,0.0,0.0,0.0,0.0,0.0,False,0,38
-0.9860039949417114,-0.010247999802231789,0.16909199953079224,1.7412500381469727,-2.380000114440918,1.3212499618530273,-0.15680000185966492,-0.05726000294089317,-0.3612000048160553,0.0,0.0,0.0,0.0,0.0,0.0,False,0,58
0.0,0.0,0.0,0.0,0.0,0.0,0.0,0.0,0.0,0.00390625,1.01123046875,0.2041015625,0.0,0.0,0.0,False,0,59
0.0,0.0,0.0,0.0,0.0,0.0,0.0,0.0,0.0,0.0,0.0,0.0,0.0,0.0,0.0,False,0,56
-0.9911279678344727,-0.01756799966096878,0.17714399099349976,1.5225000381469727,-2.3975000381469727,1.190000057220459,-0.16072000563144684,-0.0610400028526783,-0.35910001397132874,0.0,0.0,0.0,0.0,0.0,0.0,False,0,75
0.0,0.0,0.0,0.0,0.0,0.0,0.0,0.0,0.0,-0.01171875,1.01220703125,0.20947265625,0.0,0.0,0.0,False,0,76
0.0,0.0,0.0,0.0,0.0,0.0,0.0,0.0,0.0,0.0,0.0,0.0,0.0,0.0,0.0,False,0,73
-0.9999119639396667,-0.013907999731600285,0.16835999488830566,1.4262499809265137,-2.450000047683716,1.3825000524520874,-0.16393999755382538,-0.05502000078558922,-0.3557400107383728,0.0,0.0,0.0,0.0,0.0,0.0,False,0,92
0.0,0.0,0.0,0.0,0.0,0.0,0.0,0.0,0.0,-0.0078125,0.9892578125,0.2109375,0.0,0.0,0.0,False,0,93
0.0,0.0,0.0,0.0,0.0,0.0,0.0,0.0,0.0,0.0,0.0,0.0,0.0,0.0,0.0,False,0,90
-0.9933239817619324,-0.00951599981635809,0.1698240041732788,1.627500057220459,-2.1962499618530273,1.1549999713897705,-0.16464000940322876,-0.04928000271320343,-0.3514000177383423,0.0,0.0,0.0,0.0,0.0,0.0,False,0,110
0.0,0.0,0.0,0.0,0.0,0.0,0.0,0.0,0.0,-0.0185546875,0.97802734375,0.19482421875,0.0,0.0,0.0,False,0,111
0.0,0.0,0.0,0.0,0.0,0.0,0.0,0.0,0.0,0.0,0.0,0.0,0.0,0.0,0.0,False,0,108
-0.9969840049743652,-0.0226919986307621,0.16396799683570862,1.4874999523162842,-2.240000009536743,1.2949999570846558,-0.15931999683380127,-0.055160000920295715,-0.3614799976348877,0.0,0.0,0.0,0.0,0.0,0.0,False,0,127
0.0,0.0,0.0,0.0,0.0,0.0,0.0,0.0,0.0,-0.005859375,0.97900390625,0.20361328125,0.0,0.0,0.0,False,0,128
0.0,0.0,0.0,0.0,0.0,0.0,0.0,0.0,0.0,0.0,0.0,0.0,0.0,0.0,0.0,False,0,125
-0.9925919771194458,-0.019763998687267303,0.18080399930477142,1.4350000619888306,-2.362499952316284,1.2424999475479126,-0.16128000617027283,-0.05292000249028206,-0.3600800037384033,0.0,0.0,0.0,0.0,0.0,0.0,False,0,144
0.0,0.0,0.0,0.0,0.0,0.0,0.0,0.0,0.0,0.00537109375,0.98388671875,0.20166015625,0.0,0.0,0.0,False,0,145
0.0,0.0,0.0,0.0,0.0,0.0,0.0,0.0,0.0,0.0,0.0,0.0,0.0,0.0,0.0,False,0,142
-0.9947879910469055,-0.01756799966096878,0.17787599563598633,1.3125,-2.4412500858306885,1.3037500381469727,-0.15049999952316284,-0.04970000311732292,-0.3614799976348877,0.0,0.0,0.0,0.0,0.0,0.0,False,0,162
0.0,0.0,0.0,0.0,0.0,0.0,0.0,0.0,0.0,-0.01123046875,0.98583984375,0.19873046875,0.0,0.0,0.0,False,0,163
0.0,0.0,0.0,0.0,0.0,0.0,0.0,0.0,0.0,0.0,0.0,0.0,0.0,0.0,0.0,False,0,160
-0.9962520003318787,-0.018300000578165054,0.17641200125217438,1.496250033378601,-2.3187499046325684,1.5399999618530273,-0.15092000365257263,-0.056140001863241196,-0.35252001881599426,0.0,0.0,0.0,0.0,0.0,0.0,False,0,179
0.0,0.0,0.0,0.0,0.0,0.0,0.0,0.0,0.0,-0.01904296875,0.98828125,0.1904296875,0.0,0.0,0.0,False,0,180
0.0,0.0,0.0,0.0,0.0,0.0,0.0,0.0,0.0,0.0,0.0,0.0,0.0,0.0,0.0,False,0,177
-0.9947879910469055,-0.014639999717473984,0.16835999488830566,1.3300000429153442,-2.450000047683716,1.3737499713897705,-0.15680000185966492,-0.057819999754428864,-0.35784000158309937,0.0,0.0,0.0,0.0,0.0,0.0,False,0,197
0.0,0.0,0.0,0.0,0.0,0.0,0.0,0.0,0.0,0.0029296875,1.001953125,0.197265625,0.0,0.0,0.0,False,0,198
0.0,0.0,0.0,0.0,0.0,0.0,0.0,0.0,0.0,0.0,0.0,0.0,0.0,0.0,0.0,False,0,195
-0.9830759763717651,-0.014639999717473984,0.1676279902458191,1.4350000619888306,-2.240000009536743,1.2687499523162842,-0.15890000760555267,-0.059220001101493835,-0.3502800166606903,0.0,0.0,0.0,0.0,0.0,0.0,False,0,214
0.0,0.0,0.0,0.0,0.0,0.0,0.0,0.0,0.0,-0.00244140625,1.0068359375,0.18994140625,0.0,0.0,0.0,False,0,215
0.0,0.0,0.0,0.0,0.0,0.0,0.0,0.0,0.0,0.0,0.0,0.0,0.0,0.0,0.0,False,0,212
-0.9882000088691711,-0.016835998743772507,0.16835999488830566,1.6537500619888306,-2.257499933242798,1.2862499952316284,-0.16534000635147095,-0.05460000038146973,-0.3605000078678131,0.0,0.0,0.0,0.0,0.0,0.0,False,0,231
0.0,0.0,0.0,0.0,0.0,0.0,0.0,0.0,0.0,-0.01123046875,0.99609375,0.19921875,0.0,0.0,0.0,False,0,232
0.0,0.0,0.0,0.0,0.0,0.0,0.0,0.0,0.0,0.0,0.0,0.0,0.0,0.0,0.0,False,0,229
-0.9962520003318787,-0.02781599946320057,0.1815359890460968,1.627500057220459,-2.2225000858306885,1.4787499904632568,-0.1624000072479248,-0.05502000078558922,-0.35322001576423645,0.0,0.0,0.0,0.0,0.0,0.0,False,0,249
0.0,0.0,0.0,0.0,0.0,0.0,0.0,0.0,0.0,0.00537109375,0.990234375,0.2021484375,0.0,0.0,0.0,False,0,250
0.0,0.0,0.0,0.0,0.0,0.0,0.0,0.0,0.0,0.0,0.0,0.0,0.0,0.0,0.0,False,0,247
-0.9889319539070129,-0.020495999604463577,0.1756799966096878,1.4874999523162842,-2.2225000858306885,1.2949999570846558,-0.15652000904083252,-0.055720001459121704,-0.3603599965572357,0.0,0.0,0.0,0.0,0.0,0.0,False,0,266
0.0,0.0,0.0,0.0,0.0,0.0,0.0,0.0,0.0,0.0322265625,0.99267578125,0.2099609375,0.0,0.0,0.0,False,0,267
0.0,0.0,0.0,0.0,0.0,0.0,0.0,0.0,0.0,0.0,0.0,0.0,0.0,0.0,0.0,False,0,264
-0.9969840049743652,-0.023423999547958374,0.1727519929409027,1.3912500143051147,-2.3012499809265137,1.3825000524520874,-0.1677200049161911,-0.0459199994802475,-0.35770002007484436,0.0,0.0,0.0,0.0,0.0,0.0,False,0,284
0.0,0.0,0.0,0.0,0.0,0.0,0.0,0.0,0.0,0.041015625,0.998046875,0.1982421875,0.0,0.0,0.0,False,0,285
0.0,0.0,0.0,0.0,0.0,0.0,0.0,0.0,0.0,0.0,0.0,0.0,0.0,0.0,0.0,False,0,282
-0.9991799592971802,-0.016103999689221382,0.17787599563598633,1.5837500095367432,-2.213750123977661,1.2862499952316284,-0.152319997549057,-0.050540000200271606,-0.3658200204372406,0.0,0.0,0.0,0.0,0.0,0.0,False,0,301
0.0,0.0,0.0,0.0,0.0,0.0,0.0,0.0,0.0,0.0048828125,0.9990234375,0.19677734375,0.0,0.0,0.0,False,0,302
0.0,0.0,0.0,0.0,0.0,0.0,0.0,0.0,0.0,0.0,0.0,0.0,0.0,0.0,0.0,False,0,299
-0.9962520003318787,-0.020495999604463577,0.17421600222587585,1.4700000286102295,-2.3450000286102295,1.3912500143051147,-0.15834000706672668,-0.05025999993085861,-0.3568600118160248,0.0,0.0,0.0,0.0,0.0,0.0,False,0,318
0.0,0.0,0.0,0.0,0.0,0.0,0.0,0.0,0.0,0.005859375,1.00634765625,0.1904296875,0.0,0.0,0.0,False,0,319
0.0,0.0,0.0,0.0,0.0,0.0,0.0,0.0,0.0,0.0,0.0,0.0,0.0,0.0,0.0,False,0,316
-1.0006439685821533,-0.011711999773979187,0.17714399099349976,1.566249966621399,-2.309999942779541,1.225000023841858,-0.15680000185966492,-0.05278000235557556,-0.3617600202560425,0.0,0.0,0.0,0.0,0.0,0.0,False,0,336
0.0,0.0,0.0,0.0,0.0,0.0,0.0,0.0,0.0,0.00830078125,1.0029296875,0.19189453125,0.0,0.0,0.0,False,0,337
0.0,0.0,0.0,0.0,0.0,0.0,0.0,0.0,0.0,0.0,0.0,0.0,0.0,0.0,0.0,False,0,334
-0.994055986404419,-0.020495999604463577,0.18373200297355652,1.5924999713897705,-2.1787500381469727,1.3037500381469727,-0.15918000042438507,-0.05348000302910805,-0.35965999960899353,0.0,0.0,0.0,0.0,0.0,0.0,False,0,353
0.0,0.0,0.0,0.0,0.0,0.0,0.0,0.0,0.0,0.01220703125,0.99169921875,0.2060546875,0.0,0.0,0.0,False,0,354
0.0,0.0,0.0,0.0,0.0,0.0,0.0,0.0,0.0,0.0,0.0,0.0,0.0,0.0,0.0,False,0,351
-0.9911279678344727,-0.019763998687267303,0.18665999174118042,1.53125,-2.5199999809265137,1.2949999570846558,-0.15960000455379486,-0.05292000249028206,-0.35392001271247864,0.0,0.0,0.0,0.0,0.0,0.0,False,0,370
0.0,0.0,0.0,0.0,0.0,0.0,0.0,0.0,0.0,0.009765625,0.9873046875,0.20458984375,0.0,0.0,0.0,False,0,371
0.0,0.0,0.0,0.0,0.0,0.0,0.0,0.0,0.0,0.0,0.0,0.0,0.0,0.0,0.0,False,0,368
-1.0043039321899414,-0.013175999745726585,0.17128799855709076,1.6012500524520874,-2.336250066757202,1.3037500381469727,-0.15568000078201294,-0.05152000114321709,-0.36218002438545227,0.0,0.0,0.0,0.0,0.0,0.0,False,0,387
0.0,0.0,0.0,0.0,0.0,0.0,0.0,0.0,0.0,0.00439453125,1.0087890625,0.2001953125,0.0,0.0,0.0,False,0,388
0.0,0.0,0.0,0.0,0.0,0.0,0.0,0.0,0.0,0.0,0.0,0.0,0.0,0.0,0.0,False,0,385
-0.9925919771194458,-0.021959999576210976,0.17933999001979828,1.8287500143051147,-2.1700000762939453,1.2424999475479126,-0.16380000114440918,-0.04942000284790993,-0.35756000876426697,0.0,0.0,0.0,0.0,0.0,0.0,False,0,404
0.0,0.0,0.0,0.0,0.0,0.0,0.0,0.0,0.0,0.0107421875,1.01708984375,0.19384765625,0.0,0.0,0.0,False,0,405
0.0,0.0,0.0,0.0,0.0,0.0,0.0,0.0,0.0,0.0,0.0,0.0,0.0,0.0,0.0,False,0,402
-0.9889319539070129,-0.014639999717473984,0.18007199466228485,1.6887500286102295,-2.161250114440918,1.4350000619888306,-0.15540000796318054,-0.05025999993085861,-0.3617600202560425,0.0,0.0,0.0,0.0,0.0,0.0,False,0,422
0.0,0.0,0.0,0.0,0.0,0.0,0.0,0.0,0.0,-0.00732421875,0.99853515625,0.203125,0.0,0.0,0.0,False,0,423
0.0,0.0,0.0,0.0,0.0,0.0,0.0,0.0,0.0,0.0,0.0,0.0,0.0,0.0,0.0,False,0,420
-0.9911279678344727,-0.016103999689221382,0.1786080002784729,1.3650000095367432,-2.4149999618530273,1.277500033378601,-0.15890000760555267,-0.05530000105500221,-0.3612000048160553,0.0,0.0,0.0,0.0,0.0,0.0,False,0,439
0.0,0.0,0.0,0.0,0.0,0.0,0.0,0.0,0.0,-0.0224609375,0.99169921875,0.20751953125,0.0,0.0,0.0,False,0,440
0.0,0.0,0.0,0.0,0.0,0.0,0.0,0.0,0.0,0.0,0.0,0.0,0.0,0.0,0.0,False,0,437
-0.9845399856567383,-0.016835998743772507,0.18007199466228485,1.566249966621399,-2.309999942779541,1.3825000524520874,-0.16408000886440277,-0.05628000199794769,-0.3567200005054474,0.0,0.0,0.0,0.0,0.0,0.0,False,0,457
0.0,0.0,0.0,0.0,0.0,0.0,0.0,0.0,0.0,-0.009765625,0.99560546875,0.19970703125,0.0,0.0,0.0,False,0,458
0.0,0.0,0.0,0.0,0.0,0.0,0.0,0.0,0.0,0.0,0.0,0.0,0.0,0.0,0.0,False,0,455
-0.9903959631919861,-0.016103999689221382,0.18665999174118042,1.3912500143051147,-2.362499952316284,1.2949999570846558,-0.16114000976085663,-0.05894000083208084,-0.35350000858306885,0.0,0.0,0.0,0.0,0.0,0.0,False,0,474
0.0,0.0,0.0,0.0,0.0,0.0,0.0,0.0,0.0,-0.0224609375,1.00146484375,0.21435546875,0.0,0.0,0.0,False,0,475
0.0,0.0,0.0,0.0,0.0,0.0,0.0,0.0,0.0,0.0,0.0,0.0,0.0,0.0,0.0,False,0,472
-0.9918599724769592,-0.01756799966096878,0.17421600222587585,1.5750000476837158,-2.432500123977661,1.3650000095367432,-0.1674399971961975,-0.05389999970793724,-0.3546200096607208,0.0,0.0,0.0,0.0,0.0,0.0,False,0,491
0.0,0.0,0.0,0.0,0.0,0.0,0.0,0.0,0.0,-0.00390625,1.00439453125,0.20458984375,0.0,0.0,0.0,False,0,492
0.0,0.0,0.0,0.0,0.0,0.0,0.0,0.0,0.0,0.0,0.0,0.0,0.0,0.0,0.0,False,0,489
-0.9977160096168518,-0.019763998687267303,0.1705559939146042,1.5399999618530273,-2.283750057220459,1.4175000190734863,-0.1633799970149994,-0.06202000007033348,-0.3550400137901306,0.0,0.0,0.0,0.0,0.0,0.0,False,0,509
0.0,0.0,0.0,0.0,0.0,0.0,0.0,0.0,0.0,0.00830078125,1.00341796875,0.19384765625,0.0,0.0,0.0,False,0,510
0.0,0.0,0.0,0.0,0.0,0.0,0.0,0.0,0.0,0.0,0.0,0.0,0.0,0.0,0.0,False,0,507
-0.9911279678344727,-0.014639999717473984,0.18080399930477142,1.6100000143051147,-2.380000114440918,1.4262499809265137,-0.16030000150203705,-0.05432000011205673,-0.35798001289367676,0.0,0.0,0.0,0.0,0.0,0.0,False,0,526
0.0,0.0,0.0,0.0,0.0,0.0,0.0,0.0,0.0,0.01708984375,0.99658203125,0.2041015625,0.0,0.0,0.0,False,0,527
0.0,0.0,0.0,0.0,0.0,0.0,0.0,0.0,0.0,0.0,0.0,0.0,0.0,0.0,0.0,False,0,524
-0.9889319539070129,-0.020495999604463577,0.1705559939146042,1.399999976158142,-2.240000009536743,1.2074999809265137,-0.16604000329971313,-0.05446000024676323,-0.3565800189971924,0.0,0.0,0.0,0.0,0.0,0.0,False,0,544
0.0,0.0,0.0,0.0,0.0,0.0,0.0,0.0,0.0,-0.00244140625,0.986328125,0.220703125,0.0,0.0,0.0,False,0,545
0.0,0.0,0.0,0.0,0.0,0.0,0.0,0.0,0.0,0.0,0.0,0.0,0.0,0.0,0.0,False,0,542
-0.9925919771194458,-0.013175999745726585,0.17787599563598633,1.347499966621399,-2.4149999618530273,1.2424999475479126,-0.1572200059890747,-0.05236000195145607,-0.35910001397132874,0.0,0.0,0.0,0.0,0.0,0.0,False,0,561
0.0,0.0,0.0,0.0,0.0,0.0,0.0,0.0,0.0,-0.0009765625,0.9873046875,0.21435546875,0.0,0.0,0.0,False,0,562
0.0,0.0,0.0,0.0,0.0,0.0,0.0,0.0,0.0,0.0,0.0,0.0,0.0,0.0,0.0,False,0,559
-0.9925919771194458,-0.014639999717473984,0.18373200297355652,1.4175000190734863,-2.5199999809265137,1.2949999570846558,-0.163100004196167,-0.05866000056266785,-0.35923999547958374,0.0,0.0,0.0,0.0,0.0,0.0,False,0,578
0.0,0.0,0.0,0.0,0.0,0.0,0.0,0.0,0.0,-0.00439453125,0.982421875,0.20849609375,0.0,0.0,0.0,False,0,579
0.0,0.0,0.0,0.0,0.0,0.0,0.0,0.0,0.0,0.0,0.0,0.0,0.0,0.0,0.0,False,0,576
-0.9962520003318787,-0.016103999689221382,0.17787599563598633,1.618749976158142,-2.5899999141693115,1.2949999570846558,-0.1679999977350235,-0.055160000920295715,-0.3605000078678131,0.0,0.0,0.0,0.0,0.0,0.0,False,0,596
0.0,0.0,0.0,0.0,0.0,0.0,0.0,0.0,0.0,-0.00390625,0.99462890625,0.2109375,0.0,0.0,0.0,False,0,597
0.0,0.0,0.0,0.0,0.0,0.0,0.0,0.0,0.0,0.0,0.0,0.0,0.0,0.0,0.0,False,0,594
-0.9977160096168518,-0.03001200035214424,0.1815359890460968,1.3650000095367432,-2.5199999809265137,1.2512500286102295,-0.16505999863147736,-0.05530000105500221,-0.35965999960899353,0.0,0.0,0.0,0.0,0.0,0.0,False,0,613
0.0,0.0,0.0,0.0,0.0,0.0,0.0,0.0,0.0,-0.01513671875,0.99755859375,0.212890625,0.0,0.0,0.0,False,0,614
0.0,0.0,0.0,0.0,0.0,0.0,0.0,0.0,0.0,0.0,0.0,0.0,0.0,0.0,0.0,False,0,611
-0.9911279678344727,-0.02635199949145317,0.1668960005044937,1.3562500476837158,-2.3887500762939453,1.3037500381469727,-0.15861999988555908,-0.06132000312209129,-0.35910001397132874,0.0,0.0,0.0,0.0,0.0,0.0,False,0,631
0.0,0.0,0.0,0.0,0.0,0.0,0.0,0.0,0.0,-0.02294921875,0.98828125,0.2197265625,0.0,0.0,0.0,False,0,632
0.0,0.0,0.0,0.0,0.0,0.0,0.0,0.0,0.0,0.0,0.0,0.0,0.0,0.0,0.0,False,0,629
-0.9882000088691711,-0.012443999759852886,0.1844639927148819,1.5750000476837158,-2.4237499237060547,1.2862499952316284,-0.16099999845027924,-0.05278000235557556,-0.3562999963760376,0.0,0.0,0.0,0.0,0.0,0.0,False,0,648
0.0,0.0,0.0,0.0,0.0,0.0,0.0,0.0,0.0,-0.01123046875,0.98193359375,0.21484375,0.0,0.0,0.0,False,0,649
0.0,0.0,0.0,0.0,0.0,0.0,0.0,0.0,0.0,0.0,0.0,0.0,0.0,0.0,0.0,False,0,646
-0.9918599724769592,-0.016835998743772507,0.17494799196720123,1.5049999952316284,-2.380000114440918,1.3212499618530273,-0.16043999791145325,-0.05656000226736069,-0.35350000858306885,0.0,0.0,0.0,0.0,0.0,0.0,False,0,665
0.0,0.0,0.0,0.0,0.0,0.0,0.0,0.0,0.0,-0.015625,0.99560546875,0.19775390625,0.0,0.0,0.0,False,0,666
0.0,0.0,0.0,0.0,0.0,0.0,0.0,0.0,0.0,0.0,0.0,0.0,0.0,0.0,0.0,False,0,663
-0.9999119639396667,-0.023423999547958374,0.18080399930477142,1.2424999475479126,-2.353749990463257,1.1549999713897705,-0.16043999791145325,-0.04816000163555145,-0.3561600148677826,0.0,0.0,0.0,0.0,0.0,0.0,False,0,683
0.0,0.0,0.0,0.0,0.0,0.0,0.0,0.0,0.0,0.00146484375,0.998046875,0.19140625,0.0,0.0,0.0,False,0,684
0.0,0.0,0.0,0.0,0.0,0.0,0.0,0.0,0.0,0.0,0.0,0.0,0.0,0.0,0.0,False,0,681
-0.9903959631919861,-0.01903199963271618,0.18080399930477142,1.7762500047683716,-2.362499952316284,1.3037500381469727,-0.1679999977350235,-0.049000002443790436,-0.3554600179195404,0.0,0.0,0.0,0.0,0.0,0.0,False,0,700
0.0,0.0,0.0,0.0,0.0,0.0,0.0,0.0,0.0,0.0078125,0.9892578125,0.1962890625,0.0,0.0,0.0,False,0,701
0.0,0.0,0.0,0.0,0.0,0.0,0.0,0.0,0.0,0.0,0.0,0.0,0.0,0.0,0.0,False,0,698
-0.9925919771194458,-0.01903199963271618,0.1786080002784729,1.4262499809265137,-2.327500104904175,1.4350000619888306,-0.1681400090456009,-0.053060002624988556,-0.34916001558303833,0.0,0.0,0.0,0.0,0.0,0.0,False,0,717
0.0,0.0,0.0,0.0,0.0,0.0,0.0,0.0,0.0,-0.00048828125,0.984375,0.20947265625,0.0,0.0,0.0,False,0,718
0.0,0.0,0.0,0.0,0.0,0.0,0.0,0.0,0.0,0.0,0.0,0.0,0.0,0.0,0.0,False,0,715
-1.0013760328292847,-0.013907999731600285,0.18665999174118042,1.5399999618530273,-2.353749990463257,1.3737499713897705,-0.1628200113773346,-0.05558000132441521,-0.3555999994277954,0.0,0.0,0.0,0.0,0.0,0.0,False,0,734
0.0,0.0,0.0,0.0,0.0,0.0,0.0,0.0,0.0,-0.00048828125,0.982421875,0.2109375,0.0,0.0,0.0,False,0,735
0.0,0.0,0.0,0.0,0.0,0.0,0.0,0.0,0.0,0.0,0.0,0.0,0.0,0.0,0.0,False,0,732
-0.9903959631919861,-0.025619998574256897,0.1756799966096878,1.53125,-2.450000047683716,1.4350000619888306,-0.16996000707149506,-0.05348000302910805,-0.35896000266075134,0.0,0.0,0.0,0.0,0.0,0.0,False,0,751
0.0,0.0,0.0,0.0,0.0,0.0,0.0,0.0,0.0,0.01171875,1.0029296875,0.20947265625,0.0,0.0,0.0,False,0,752
0.0,0.0,0.0,0.0,0.0,0.0,0.0,0.0,0.0,0.0,0.0,0.0,0.0,0.0,0.0,False,0,749
-0.9969840049743652,-0.01903199963271618,0.17787599563598633,1.2512500286102295,-2.484999895095825,1.1375000476837158,-0.17066000401973724,-0.05389999970793724,-0.36274001002311707,0.0,0.0,0.0,0.0,0.0,0.0,False,0,769
0.0,0.0,0.0,0.0,0.0,0.0,0.0,0.0,0.0,-0.00146484375,0.99755859375,0.21533203125,0.0,0.0,0.0,False,0,770
0.0,0.0,0.0,0.0,0.0,0.0,0.0,0.0,0.0,0.0,0.0,0.0,0.0,0.0,0.0,False,0,767
-0.9896639585494995,-0.018300000578165054,0.19105198979377747,1.53125,-2.668750047683716,1.2074999809265137,-0.16478000581264496,-0.050540000200271606,-0.3665200173854828,0.0,0.0,0.0,0.0,0.0,0.0,False,0,786
0.0,0.0,0.0,0.0,0.0,0.0,0.0,0.0,0.0,-0.009765625,0.986328125,0.21728515625,0.0,0.0,0.0,False,0,787
0.0,0.0,0.0,0.0,0.0,0.0,0.0,0.0,0.0,0.0,0.0,0.0,0.0,0.0,0.0,False,0,784
-0.9852719902992249,-0.016103999689221382,0.19324800372123718,1.6012500524520874,-2.572499990463257,1.3212499618530273,-0.16170001029968262,-0.04914000257849693,-0.3623200058937073,0.0,0.0,0.0,0.0,0.0,0.0,False,0,804
0.0,0.0,0.0,0.0,0.0,0.0,0.0,0.0,0.0,-0.0078125,0.9931640625,0.19775390625,0.0,0.0,0.0,False,0,805
0.0,0.0,0.0,0.0,0.0,0.0,0.0,0.0,0.0,0.0,0.0,0.0,0.0,0.0,0.0,False,0,802
-0.9852719902992249,-0.012443999759852886,0.19324800372123718,1.408750057220459,-2.4674999713897705,1.2949999570846558,-0.1580599993467331,-0.04536000266671181,-0.3705800175666809,0.0,0.0,0.0,0.0,0.0,0.0,False,0,821
0.0,0.0,0.0,0.0,0.0,0.0,0.0,0.0,0.0,-0.01025390625,0.9765625,0.2041015625,0.0,0.0,0.0,False,0,822
0.0,0.0,0.0,0.0,0.0,0.0,0.0,0.0,0.0,0.0,0.0,0.0,0.0,0.0,0.0,False,0,819
-0.9962520003318787,-0.01756799966096878,0.1756799966096878,1.4262499809265137,-2.336250066757202,1.3037500381469727,-0.15876001119613647,-0.04690000042319298,-0.36428001523017883,0.0,0.0,0.0,0.0,0.0,0.0,False,0,838
0.0,0.0,0.0,0.0,0.0,0.0,0.0,0.0,0.0,-0.0166015625,0.97021484375,0.20947265625,0.0,0.0,0.0,False,0,839
0.0,0.0,0.0,0.0,0.0,0.0,0.0,0.0,0.0,0.0,0.0,0.0,0.0,0.0,0.0,False,0,836
-1.0021079778671265,-0.021959999576210976,0.18373200297355652,1.4175000190734863,-2.4149999618530273,1.3387500047683716,-0.1628200113773346,-0.049560002982616425,-0.3666599988937378,0.0,0.0,0.0,0.0,0.0,0.0,False,0,856
0.0,0.0,0.0,0.0,0.0,0.0,0.0,0.0,0.0,-0.01025390625,0.97900390625,0.21044921875,0.0,0.0,0.0,False,0,857
0.0,0.0,0.0,0.0,0.0,0.0,0.0,0.0,0.0,0.0,0.0,0.0,0.0,0.0,0.0,False,0,854
-0.9874680042266846,-0.012443999759852886,0.19324800372123718,1.5399999618530273,-2.581249952316284,1.4700000286102295,-0.15890000760555267,-0.05488000065088272,-0.3662400245666504,0.0,0.0,0.0,0.0,0.0,0.0,False,0,873
0.0,0.0,0.0,0.0,0.0,0.0,0.0,0.0,0.0,-0.00048828125,0.98876953125,0.18017578125,0.0,0.0,0.0,False,0,874
0.0,0.0,0.0,0.0,0.0,0.0,0.0,0.0,0.0,0.0,0.0,0.0,0.0,0.0,0.0,False,0,871
-0.9918599724769592,-0.018300000578165054,0.18226799368858337,1.3650000095367432,-2.4674999713897705,1.2949999570846558,-0.15624000132083893,-0.05894000083208084,-0.3605000078678131,0.0,0.0,0.0,0.0,0.0,0.0,False,0,891
0.0,0.0,0.0,0.0,0.0,0.0,0.0,0.0,0.0,0.00244140625,1.02490234375,0.16357421875,0.0,0.0,0.0,False,0,892
0.0,0.0,0.0,0.0,0.0,0.0,0.0,0.0,0.0,0.0,0.0,0.0,0.0,0.0,0.0,False,0,889
-0.9969840049743652,-0.01756799966096878,0.17202000319957733,1.4612499475479126,-2.3712499141693115,1.3212499618530273,-0.15596000850200653,-0.058800000697374344,-0.3571400046348572,0.0,0.0,0.0,0.0,0.0,0.0,False,0,908
0.0,0.0,0.0,0.0,0.0,0.0,0.0,0.0,0.0,0.0048828125,1.009765625,0.18115234375,0.0,0.0,0.0,False,0,909
0.0,0.0,0.0,0.0,0.0,0.0,0.0,0.0,0.0,0.0,0.0,0.0,0.0,0.0,0.0,False,0,906
-0.9999119639396667,-0.02122800052165985,0.1903200000524521,1.4350000619888306,-2.2925000190734863,1.1725000143051147,-0.15484000742435455,-0.054179999977350235,-0.3472000062465668,0.0,0.0,0.0,0.0,0.0,0.0,False,0,925
0.0,0.0,0.0,0.0,0.0,0.0,0.0,0.0,0.0,0.009765625,1.0068359375,0.18359375,0.0,0.0,0.0,False,0,926
0.0,0.0,0.0,0.0,0.0,0.0,0.0,0.0,0.0,0.0,0.0,0.0,0.0,0.0,0.0,False,0,923
-0.9933239817619324,-0.015371999703347683,0.18885599076747894,1.5575000047683716,-2.4149999618530273,1.2424999475479126,-0.15666000545024872,-0.05894000083208084,-0.3515399992465973,0.0,0.0,0.0,0.0,0.0,0.0,False,0,943
0.0,0.0,0.0,0.0,0.0,0.0,0.0,0.0,0.0,0.02978515625,1.0205078125,0.1826171875,0.0,0.0,0.0,False,0,944
0.0,0.0,0.0,0.0,0.0,0.0,0.0,0.0,0.0,0.0,0.0,0.0,0.0,0.0,0.0,False,0,941
-0.9962520003318787,-0.013175999745726585,0.18373200297355652,1.5837500095367432,-2.3450000286102295,1.225000023841858,-0.15568000078201294,-0.04830000177025795,-0.35798001289367676,0.0,0.0,0.0,0.0,0.0,0.0,False,0,960
0.0,0.0,0.0,0.0,0.0,0.0,0.0,0.0,0.0,0.0048828125,1.001953125,0.2001953125,0.0,0.0,0.0,False,0,961
0.0,0.0,0.0,0.0,0.0,0.0,0.0,0.0,0.0,0.0,0.0,0.0,0.0,0.0,0.0,False,0,958
-0.9955199956893921,-0.03001200035214424,0.1756799966096878,1.5225000381469727,-2.1787500381469727,1.5049999952316284,-0.16170001029968262,-0.05936000123620033,-0.35350000858306885,0.0,0.0,0.0,0.0,0.0,0.0,False,0,978
0.0,0.0,0.0,0.0,0.0,0.0,0.0,0.0,0.0,0.00830078125,0.986328125,0.21044921875,0.0,0.0,0.0,False,0,979
0.0,0.0,0.0,0.0,0.0,0.0,0.0,0.0,0.0,0.0,0.0,0.0,0.0,0.0,0.0,False,0,976
-0.9999119639396667,-0.018300000578165054,0.18226799368858337,1.7062499523162842,-2.257499933242798,1.2424999475479126,-0.15890000760555267,-0.057680003345012665,-0.3616200089454651,0.0,0.0,0.0,0.0,0.0,0.0,False,0,995
0.0,0.0,0.0,0.0,0.0,0.0,0.0,0.0,0.0,0.01318359375,0.9931640625,0.2041015625,0.0,0.0,0.0,False,0,996
0.0,0.0,0.0,0.0,0.0,0.0,0.0,0.0,0.0,0.0,0.0,0.0,0.0,0.0,0.0,False,0,993
-0.9896639585494995,-0.01903199963271618,0.18007199466228485,1.4612499475479126,-2.2925000190734863,1.1200000047683716,-0.1632400006055832,-0.05432000011205673,-0.35923999547958374,0.0,0.0,0.0,0.0,0.0,0.0,False,0,1012
0.0,0.0,0.0,0.0,0.0,0.0,0.0,0.0,0.0,0.0068359375,0.9951171875,0.19921875,0.0,0.0,0.0,False,0,1013
0.0,0.0,0.0,0.0,0.0,0.0,0.0,0.0,0.0,0.0,0.0,0.0,0.0,0.0,0.0,False,0,1010
-0.9903959631919861,-0.016103999689221382,0.19397999346256256,1.4350000619888306,-2.213750123977661,1.3037500381469727,-0.16099999845027924,-0.057819999754428864,-0.35868000984191895,0.0,0.0,0.0,0.0,0.0,0.0,False,0,1028
0.0,0.0,0.0,0.0,0.0,0.0,0.0,0.0,0.0,0.00439453125,1.01123046875,0.1904296875,0.0,0.0,0.0,False,0,1029
0.0,0.0,0.0,0.0,0.0,0.0,0.0,0.0,0.0,0.0,0.0,0.0,0.0,0.0,0.0,False,0,1026
-0.9889319539070129,-0.015371999703347683,0.18080399930477142,1.399999976158142,-2.4937500953674316,1.3037500381469727,-0.15890000760555267,-0.05348000302910805,-0.35252001881599426,0.0,0.0,0.0,0.0,0.0,0.0,False,0,1044
0.0,0.0,0.0,0.0,0.0,0.0,0.0,0.0,0.0,0.00537109375,1.02099609375,0.1943359375,0.0,0.0,0.0,False,0,1045
0.0,0.0,0.0,0.0,0.0,0.0,0.0,0.0,0.0,0.0,0.0,0.0,0.0,0.0,0.0,False,0,1042
-0.9918599724769592,-0.008051999844610691,0.1844639927148819,1.566249966621399,-2.572499990463257,1.2687499523162842,-0.16464000940322876,-0.05278000235557556,-0.3603599965572357,0.0,0.0,0.0,0.0,0.0,0.0,False,0,1060
0.0,0.0,0.0,0.0,0.0,0.0,0.0,0.0,0.0,-0.005859375,0.9892578125,0.20556640625,0.0,0.0,0.0,False,0,1061
0.0,0.0,0.0,0.0,0.0,0.0,0.0,0.0,0.0,0.0,0.0,0.0,0.0,0.0,0.0,False,0,1058
-0.9947879910469055,-0.016835998743772507,0.18592800199985504,1.2599999904632568,-2.3975000381469727,1.1987500190734863,-0.16393999755382538,-0.04872000217437744,-0.3610600233078003,0.0,0.0,0.0,0.0,0.0,0.0,False,0,1076
0.0,0.0,0.0,0.0,0.0,0.0,0.0,0.0,0.0,-0.0068359375,0.99365234375,0.2109375,0.0,0.0,0.0,False,0,1077
0.0,0.0,0.0,0.0,0.0,0.0,0.0,0.0,0.0,0.0,0.0,0.0,0.0,0.0,0.0,False,0,1074
-0.9911279678344727,-0.03147599846124649,0.17128799855709076,1.7237499952316284,-2.625,1.225000023841858,-0.16058000922203064,-0.05530000105500221,-0.364980012178421,0.0,0.0,0.0,0.0,0.0,0.0,False,0,1091
0.0,0.0,0.0,0.0,0.0,0.0,0.0,0.0,0.0,0.01513671875,0.9931640625,0.2001953125,0.0,0.0,0.0,False,0,1092
0.0,0.0,0.0,0.0,0.0,0.0,0.0,0.0,0.0,0.0,0.0,0.0,0.0,0.0,0.0,False,0,1089
-0.9999119639396667,-0.019763998687267303,0.18519599735736847,1.2599999904632568,-2.484999895095825,1.2162500619888306,-0.16449999809265137,-0.05389999970793724,-0.3551799952983856,0.0,0.0,0.0,0.0,0.0,0.0,False,0,1108
0.0,0.0,0.0,0.0,0.0,0.0,0.0,0.0,0.0,0.00341796875,1.01611328125,0.22900390625,0.0,0.0,0.0,False,0,1109
0.0,0.0,0.0,0.0,0.0,0.0,0.0,0.0,0.0,0.0,0.0,0.0,0.0,0.0,0.0,False,0,1106
-0.9889319539070129,-0.02122800052165985,0.18299999833106995,1.3562500476837158,-2.3887500762939453,1.2599999904632568,-0.16408000886440277,-0.05334000289440155,-0.3543400168418884,0.0,0.0,0.0,0.0,0.0,0.0,False,0,1125
0.0,0.0,0.0,0.0,0.0,0.0,0.0,0.0,0.0,-0.01171875,1.01220703125,0.25390625,0.0,0.0,0.0,False,0,1126
0.0,0.0,0.0,0.0,0.0,0.0,0.0,0.0,0.0,0.0,0.0,0.0,0.0,0.0,0.0,False,0,1123
-0.994055986404419,-0.016835998743772507,0.18007199466228485,1.399999976158142,-2.231250047683716,1.2687499523162842,-0.16198000311851501,-0.05795999988913536,-0.3519600033760071,0.0,0.0,0.0,0.0,0.0,0.0,False,0,1143
0.0,0.0,0.0,0.0,0.0,0.0,0.0,0.0,0.0,-0.00927734375,0.98583984375,0.2294921875,0.0,0.0,0.0,False,0,1144
0.0,0.0,0.0,0.0,0.0,0.0,0.0,0.0,0.0,0.0,0.0,0.0,0.0,0.0,0.0,False,0,1141
-0.9911279678344727,-0.016835998743772507,0.17348399758338928,1.7237499952316284,-2.2225000858306885,1.181249976158142,-0.15680000185966492,-0.056700002402067184,-0.3561600148677826,0.0,0.0,0.0,0.0,0.0,0.0,False,0,1160
0.0,0.0,0.0,0.0,0.0,0.0,0.0,0.0,0.0,-0.02099609375,0.9794921875,0.193359375,0.0,0.0,0.0,False,0,1161
0.0,0.0,0.0,0.0,0.0,0.0,0.0,0.0,0.0,0.0,0.0,0.0,0.0,0.0,0.0,False,0,1158
-0.986735999584198,-0.014639999717473984,0.187391996383667,1.4874999523162842,-2.432500123977661,1.2862499952316284,-0.163100004196167,-0.04886000230908394,-0.35294002294540405,0.0,0.0,0.0,0.0,0.0,0.0,False,0,1177
0.0,0.0,0.0,0.0,0.0,0.0,0.0,0.0,0.0,-0.0361328125,0.9736328125,0.18798828125,0.0,0.0,0.0,False,0,1178
0.0,0.0,0.0,0.0,0.0,0.0,0.0,0.0,0.0,0.0,0.0,0.0,0.0,0.0,0.0,False,0,1175
-0.9933239817619324,-0.011711999773979187,0.18226799368858337,1.618749976158142,-2.0737500190734863,1.2862499952316284,-0.16646000742912292,-0.050680000334978104,-0.3561600148677826,0.0,0.0,0.0,0.0,0.0,0.0,False,0,1195
0.0,0.0,0.0,0.0,0.0,0.0,0.0,0.0,0.0,0.00146484375,0.99072265625,0.19873046875,0.0,0.0,0.0,False,0,1196
0.0,0.0,0.0,0.0,0.0,0.0,0.0,0.0,0.0,0.0,0.0,0.0,0.0,0.0,0.0,False,0,1193
-0.9918599724769592,-0.02781599946320057,0.18299999833106995,1.5137499570846558,-2.161250114440918,1.2512500286102295,-0.15596000850200653,-0.04970000311732292,-0.36302000284194946,0.0,0.0,0.0,0.0,0.0,0.0,False,0,1212
0.0,0.0,0.0,0.0,0.0,0.0,0.0,0.0,0.0,-0.00244140625,1.00146484375,0.19970703125,0.0,0.0,0.0,False,0,1213
0.0,0.0,0.0,0.0,0.0,0.0,0.0,0.0,0.0,0.0,0.0,0.0,0.0,0.0,0.0,False,0,1210
-0.994055986404419,-0.018300000578165054,0.1756799966096878,1.6887500286102295,-2.4674999713897705,1.3300000429153442,-0.15918000042438507,-0.05278000235557556,-0.3574199974536896,0.0,0.0,0.0,0.0,0.0,0.0,False,0,1229
0.0,0.0,0.0,0.0,0.0,0.0,0.0,0.0,0.0,-0.01904296875,0.9970703125,0.19921875,0.0,0.0,0.0,False,0,1230
0.0,0.0,0.0,0.0,0.0,0.0,0.0,0.0,0.0,0.0,0.0,0.0,0.0,0.0,0.0,False,0,1227
-0.9984479546546936,-0.0226919986307621,0.18519599735736847,1.4524999856948853,-2.327500104904175,1.2687499523162842,-0.15372000634670258,-0.04928000271320343,-0.3619000017642975,0.0,0.0,0.0,0.0,0.0,0.0,False,0,1246
0.0,0.0,0.0,0.0,0.0,0.0,0.0,0.0,0.0,-0.01220703125,0.9833984375,0.2099609375,0.0,0.0,0.0,False,0,1247
0.0,0.0,0.0,0.0,0.0,0.0,0.0,0.0,0.0,0.0,0.0,0.0,0.0,0.0,0.0,False,0,1244
-1.006500005722046,-0.020495999604463577,0.18665999174118042,1.618749976158142,-2.3975000381469727,1.128749966621399,-0.15946000814437866,-0.058240000158548355,-0.3543400168418884,0.0,0.0,0.0,0.0,0.0,0.0,False,0,1263
0.0,0.0,0.0,0.0,0.0,0.0,0.0,0.0,0.0,-0.01123046875,0.986328125,0.216796875,0.0,0.0,0.0,False,0,1264
0.0,0.0,0.0,0.0,0.0,0.0,0.0,0.0,0.0,0.0,0.0,0.0,0.0,0.0,0.0,False,0,1261
-0.9903959631919861,-0.00951599981635809,0.18226799368858337,1.5837500095367432,-2.4674999713897705,1.3300000429153442,-0.1531600058078766,-0.0560000017285347,-0.3558800220489502,0.0,0.0,0.0,0.0,0.0,0.0,False,0,1281
0.0,0.0,0.0,0.0,0.0,0.0,0.0,0.0,0.0,0.00048828125,0.99072265625,0.20703125,0.0,0.0,0.0,False,0,1282
0.0,0.0,0.0,0.0,0.0,0.0,0.0,0.0,0.0,0.0,0.0,0.0,0.0,0.0,0.0,False,0,1279
-0.9911279678344727,-0.020495999604463577,0.1815359890460968,1.3737499713897705,-2.353749990463257,1.2074999809265137,-0.15918000042438507,-0.05124000087380409,-0.3516800105571747,0.0,0.0,0.0,0.0,0.0,0.0,False,0,1298
0.0,0.0,0.0,0.0,0.0,0.0,0.0,0.0,0.0,0.0009765625,0.97705078125,0.2080078125,0.0,0.0,0.0,False,0,1299
0.0,0.0,0.0,0.0,0.0,0.0,0.0,0.0,0.0,0.0,0.0,0.0,0.0,0.0,0.0,False,0,1296
-0.9911279678344727,-0.0226919986307621,0.18226799368858337,1.3737499713897705,-2.4412500858306885,1.4262499809265137,-0.16016000509262085,-0.04844000190496445,-0.35756000876426697,0.0,0.0,0.0,0.0,0.0,0.0,False,0,1316
0.0,0.0,0.0,0.0,0.0,0.0,0.0,0.0,0.0,-0.001953125,0.9736328125,0.20556640625,0.0,0.0,0.0,False,0,1317
0.0,0.0,0.0,0.0,0.0,0.0,0.0,0.0,0.0,0.0,0.0,0.0,0.0,0.0,0.0,False,0,1314
-0.9903959631919861,-0.02781599946320057,0.18080399930477142,1.4524999856948853,-2.1700000762939453,1.2862499952316284,-0.15498000383377075,-0.05152000114321709,-0.35420000553131104,0.0,0.0,0.0,0.0,0.0,0.0,False,0,1333
0.0,0.0,0.0,0.0,0.0,0.0,0.0,0.0,0.0,0.01025390625,1.01708984375,0.2080078125,0.0,0.0,0.0,False,0,1334
0.0,0.0,0.0,0.0,0.0,0.0,0.0,0.0,0.0,0.0,0.0,0.0,0.0,0.0,0.0,False,0,1331
-0.9918599724769592,-0.019763998687267303,0.18373200297355652,1.5049999952316284,-2.458750009536743,1.347499966621399,-0.15343999862670898,-0.05152000114321709,-0.3663800060749054,0.0,0.0,0.0,0.0,0.0,0.0,False,0,1350
0.0,0.0,0.0,0.0,0.0,0.0,0.0,0.0,0.0,-0.00439453125,1.00048828125,0.2216796875,0.0,0.0,0.0,False,0,1351
0.0,0.0,0.0,0.0,0.0,0.0,0.0,0.0,0.0,0.0,0.0,0.0,0.0,0.0,0.0,False,0,1348
-1.0006439685821533,-0.01756799966096878,0.18519599735736847,1.4874999523162842,-2.7125000953674316,1.2599999904632568,-0.1526000052690506,-0.048580002039670944,-0.3651200234889984,0.0,0.0,0.0,0.0,0.0,0.0,False,0,1367
0.0,0.0,0.0,0.0,0.0,0.0,0.0,0.0,0.0,-0.00244140625,1.00634765625,0.21484375,0.0,0.0,0.0,False,0,1368
0.0,0.0,0.0,0.0,0.0,0.0,0.0,0.0,0.0,0.0,0.0,0.0,0.0,0.0,0.0,False,0,1365
-0.9999119639396667,-0.015371999703347683,0.17714399099349976,1.566249966621399,-2.450000047683716,1.2949999570846558,-0.15372000634670258,-0.04983999952673912,-0.3598000109195709,0.0,0.0,0.0,0.0,0.0,0.0,False,0,1384
0.0,0.0,0.0,0.0,0.0,0.0,0.0,0.0,0.0,-0.0107421875,1.00634765625,0.2041015625,0.0,0.0,0.0,False,0,1385
0.0,0.0,0.0,0.0,0.0,0.0,0.0,0.0,0.0,0.0,0.0,0.0,0.0,0.0,0.0,False,0,1382
-0.9925919771194458,-0.023423999547958374,0.1844639927148819,1.566249966621399,-2.2750000953674316,1.3212499618530273,-0.15148000419139862,-0.05138000100851059,-0.3570000231266022,0.0,0.0,0.0,0.0,0.0,0.0,False,0,1401
0.0,0.0,0.0,0.0,0.0,0.0,0.0,0.0,0.0,-0.00830078125,1.00390625,0.208984375,0.0,0.0,0.0,False,0,1402
0.0,0.0,0.0,0.0,0.0,0.0,0.0,0.0,0.0,0.0,0.0,0.0,0.0,0.0,0.0,False,0,1399
-0.9933239817619324,-0.020495999604463577,0.19105198979377747,1.6974999904632568,-2.380000114440918,1.3212499618530273,-0.15848000347614288,-0.046620000153779984,-0.367220014333725,0.0,0.0,0.0,0.0,0.0,0.0,False,0,1416
0.0,0.0,0.0,0.0,0.0,0.0,0.0,0.0,0.0,0.01123046875,1.01904296875,0.21533203125,0.0,0.0,0.0,False,0,1417
0.0,0.0,0.0,0.0,0.0,0.0,0.0,0.0,0.0,0.0,0.0,0.0,0.0,0.0,0.0,False,0,1414
-0.9969840049743652,-0.01756799966096878,0.18812400102615356,1.6887500286102295,-2.012500047683716,1.181249976158142,-0.15624000132083893,-0.046620000153779984,-0.36246001720428467,0.0,0.0,0.0,0.0,0.0,0.0,False,0,1433
0.0,0.0,0.0,0.0,0.0,0.0,0.0,0.0,0.0,0.0234375,1.02197265625,0.2216796875,0.0,0.0,0.0,False,0,1434
0.0,0.0,0.0,0.0,0.0,0.0,0.0,0.0,0.0,0.0,0.0,0.0,0.0,0.0,0.0,False,0,1431
-0.9999119639396667,-0.018300000578165054,0.17933999001979828,1.6800000667572021,-2.4237499237060547,1.2424999475479126,-0.15693999826908112,-0.05124000087380409,-0.3562999963760376,0.0,0.0,0.0,0.0,0.0,0.0,False,0,1451
0.0,0.0,0.0,0.0,0.0,0.0,0.0,0.0,0.0,0.01171875,0.99365234375,0.20361328125,0.0,0.0,0.0,False,0,1452
0.0,0.0,0.0,0.0,0.0,0.0,0.0,0.0,0.0,0.0,0.0,0.0,0.0,0.0,0.0,False,0,1449
-0.986735999584198,-0.016835998743772507,0.18007199466228485,1.6012500524520874,-2.257499933242798,1.5225000381469727,-0.15148000419139862,-0.05292000249028206,-0.3625999987125397,0.0,0.0,0.0,0.0,0.0,0.0,False,0,1468
0.0,0.0,0.0,0.0,0.0,0.0,0.0,0.0,0.0,0.02197265625,1.025390625,0.19775390625,0.0,0.0,0.0,False,0,1469
0.0,0.0,0.0,0.0,0.0,0.0,0.0,0.0,0.0,0.0,0.0,0.0,0.0,0.0,0.0,False,0,1466
-0.9955199956893921,-0.015371999703347683,0.1844639927148819,1.566249966621399,-2.362499952316284,1.2862499952316284,-0.15526001155376434,-0.05278000235557556,-0.3614799976348877,0.0,0.0,0.0,0.0,0.0,0.0,False,0,1486
0.0,0.0,0.0,0.0,0.0,0.0,0.0,0.0,0.0,0.02197265625,1.03173828125,0.19921875,0.0,0.0,0.0,False,0,1487
0.0,0.0,0.0,0.0,0.0,0.0,0.0,0.0,0.0,0.0,0.0,0.0,0.0,0.0,0.0,False,0,1484
-0.9984479546546936,-0.024156000465154648,0.18885599076747894,1.5837500095367432,-2.3012499809265137,1.3300000429153442,-0.16128000617027283,-0.053060002624988556,-0.35308000445365906,0.0,0.0,0.0,0.0,0.0,0.0,False,0,1503
0.0,0.0,0.0,0.0,0.0,0.0,0.0,0.0,0.0,0.0078125,1.00146484375,0.1904296875,0.0,0.0,0.0,False,0,1504
0.0,0.0,0.0,0.0,0.0,0.0,0.0,0.0,0.0,0.0,0.0,0.0,0.0,0.0,0.0,False,0,1501
-0.9882000088691711,-0.013907999731600285,0.0014639999717473984,1.75,-2.476249933242798,1.1200000047683716,-0.15624000132083893,-0.05292000249028206,-0.35406002402305603,0.0,0.0,0.0,0.0,0.0,0.0,False,0,1520
0.0,0.0,0.0,0.0,0.0,0.0,0.0,0.0,0.0,0.00244140625,0.99951171875,0.19091796875,0.0,0.0,0.0,False,0,1521
0.0,0.0,0.0,0.0,0.0,0.0,0.0,0.0,0.0,0.0,0.0,0.0,0.0,0.0,0.0,False,0,1518
-0.9933239817619324,-0.019763998687267303,0.18958799540996552,1.4612499475479126,-2.572499990463257,1.1637500524520874,-0.16352000832557678,-0.0456400029361248,-0.3574199974536896,0.0,0.0,0.0,0.0,0.0,0.0,False,0,1538
0.0,0.0,0.0,0.0,0.0,0.0,0.0,0.0,0.0,-0.02587890625,0.966796875,0.21630859375,0.0,0.0,0.0,False,0,1539
0.0,0.0,0.0,0.0,0.0,0.0,0.0,0.0,0.0,0.0,0.0,0.0,0.0,0.0,0.0,False,0,1536
-0.9955199956893921,-0.016103999689221382,0.18885599076747894,1.9600000381469727,-2.336250066757202,1.347499966621399,-0.16058000922203064,-0.04480000212788582,-0.3549000024795532,0.0,0.0,0.0,0.0,0.0,0.0,False,0,1555
0.0,0.0,0.0,0.0,0.0,0.0,0.0,0.0,0.0,-0.01318359375,0.97705078125,0.23974609375,0.0,0.0,0.0,False,0,1556
0.0,0.0,0.0,0.0,0.0,0.0,0.0,0.0,0.0,0.0,0.0,0.0,0.0,0.0,0.0,False,0,1553
-0.9911279678344727,-0.024156000465154648,0.18299999833106995,1.5575000047683716,-2.3187499046325684,1.3125,-0.15834000706672668,-0.04970000311732292,-0.3562999963760376,0.0,0.0,0.0,0.0,0.0,0.0,False,0,1573
0.0,0.0,0.0,0.0,0.0,0.0,0.0,0.0,0.0,-0.0078125,0.99072265625,0.21728515625,0.0,0.0,0.0,False,0,1574
0.0,0.0,0.0,0.0,0.0,0.0,0.0,0.0,0.0,0.0,0.0,0.0,0.0,0.0,0.0,False,0,1571
-0.9925919771194458,-0.016835998743772507,0.1756799966096878,1.8112499713897705,-2.476249933242798,1.2599999904632568,-0.16366000473499298,-0.05040000006556511,-0.356440007686615,0.0,0.0,0.0,0.0,0.0,0.0,False,0,1590
0.0,0.0,0.0,0.0,0.0,0.0,0.0,0.0,0.0,-0.0078125,1.0009765625,0.20751953125,0.0,0.0,0.0,False,0,1591
0.0,0.0,0.0,0.0,0.0,0.0,0.0,0.0,0.0,0.0,0.0,0.0,0.0,0.0,0.0,False,0,1588
-0.9911279678344727,-0.0226919986307621,0.18665999174118042,1.2949999570846558,-2.502500057220459,1.1725000143051147,-0.15890000760555267,-0.05278000235557556,-0.3603599965572357,0.0,0.0,0.0,0.0,0.0,0.0,False,0,1607
0.0,0.0,0.0,0.0,0.0,0.0,0.0,0.0,0.0,0.01806640625,1.00390625,0.201171875,0.0,0.0,0.0,False,0,1608
0.0,0.0,0.0,0.0,0.0,0.0,0.0,0.0,0.0,0.0,0.0,0.0,0.0,0.0,0.0,False,0,1605
-0.9896639585494995,-0.019763998687267303,0.18080399930477142,1.5575000047683716,-2.4674999713897705,1.3825000524520874,-0.15624000132083893,-0.04746000096201897,-0.35910001397132874,0.0,0.0,0.0,0.0,0.0,0.0,False,0,1640
0.0,0.0,0.0,0.0,0.0,0.0,0.0,0.0,0.0,0.0087890625,0.9912109375,0.2041015625,0.0,0.0,0.0,False,0,1641
0.0,0.0,0.0,0.0,0.0,0.0,0.0,0.0,0.0,0.0,0.0,0.0,0.0,0.0,0.0,False,0,1638
-0.9911279678344727,-0.01756799966096878,0.17787599563598633,1.627500057220459,-2.3012499809265137,1.3562500476837158,-0.15680000185966492,-0.046059999614953995,-0.3652600049972534,0.0,0.0,0.0,0.0,0.0,0.0,False,0,1651
0.0,0.0,0.0,0.0,0.0,0.0,0.0,0.0,0.0,-0.0009765625,0.9931640625,0.19873046875,0.0,0.0,0.0,False,0,1652
0.0,0.0,0.0,0.0,0.0,0.0,0.0,0.0,0.0,0.0,0.0,0.0,0.0,0.0,0.0,False,0,1649
-0.9911279678344727,-0.018300000578165054,0.187391996383667,1.6712499856948853,-2.528749942779541,1.3912500143051147,-0.15372000634670258,-0.057120002806186676,-0.3567200005054474,0.0,0.0,0.0,0.0,0.0,0.0,False,0,1663
0.0,0.0,0.0,0.0,0.0,0.0,0.0,0.0,0.0,-0.00146484375,1.0009765625,0.19580078125,0.0,0.0,0.0,False,0,1669
0.0,0.0,0.0,0.0,0.0,0.0,0.0,0.0,0.0,0.0,0.0,0.0,0.0,0.0,0.0,False,0,1661
-0.9874680042266846,-0.01756799966096878,0.19324800372123718,1.443750023841858,-2.528749942779541,1.1549999713897705,-0.15455999970436096,-0.04928000271320343,-0.35882002115249634,0.0,0.0,0.0,0.0,0.0,0.0,False,0,1680
0.0,0.0,0.0,0.0,0.0,0.0,0.0,0.0,0.0,-0.00830078125,1.01318359375,0.20556640625,0.0,0.0,0.0,False,0,1682
0.0,0.0,0.0,0.0,0.0,0.0,0.0,0.0,0.0,0.0,0.0,0.0,0.0,0.0,0.0,False,0,1673
-0.9860039949417114,-0.011711999773979187,0.18885599076747894,1.618749976158142,-2.598750114440918,1.1549999713897705,-0.15512000024318695,-0.04914000257849693,-0.3599400222301483,0.0,0.0,0.0,0.0,0.0,0.0,False,0,1691
0.0,0.0,0.0,0.0,0.0,0.0,0.0,0.0,0.0,-0.0107421875,1.00634765625,0.19921875,0.0,0.0,0.0,False,0,1697
0.0,0.0,0.0,0.0,0.0,0.0,0.0,0.0,0.0,0.0,0.0,0.0,0.0,0.0,0.0,False,0,1688
-0.9911279678344727,-0.00878399983048439,0.187391996383667,1.5750000476837158,-2.528749942779541,1.1987500190734863,-0.16072000563144684,-0.04830000177025795,-0.3602200150489807,0.0,0.0,0.0,0.0,0.0,0.0,False,0,1708
0.0,0.0,0.0,0.0,0.0,0.0,0.0,0.0,0.0,0.0146484375,1.017578125,0.193359375,0.0,0.0,0.0,False,0,1710
0.0,0.0,0.0,0.0,0.0,0.0,0.0,0.0,0.0,0.0,0.0,0.0,0.0,0.0,0.0,False,0,1701
-0.9933239817619324,-0.018300000578165054,0.1815359890460968,1.5137499570846558,-2.213750123977661,1.1375000476837158,-0.1580599993467331,-0.055720001459121704,-0.35923999547958374,0.0,0.0,0.0,0.0,0.0,0.0,False,0,1720
0.0,0.0,0.0,0.0,0.0,0.0,0.0,0.0,0.0,0.0205078125,1.01611328125,0.18896484375,0.0,0.0,0.0,False,0,1721
0.0,0.0,0.0,0.0,0.0,0.0,0.0,0.0,0.0,0.0,0.0,0.0,0.0,0.0,0.0,False,0,1717
-0.994055986404419,-0.019763998687267303,0.18007199466228485,1.5137499570846558,-2.476249933242798,1.2949999570846558,-0.16016000509262085,-0.058800000697374344,-0.36400002241134644,0.0,0.0,0.0,0.0,0.0,0.0,False,0,1732
0.0,0.0,0.0,0.0,0.0,0.0,0.0,0.0,0.0,0.00927734375,0.9951171875,0.18505859375,0.0,0.0,0.0,False,0,1738
0.0,0.0,0.0,0.0,0.0,0.0,0.0,0.0,0.0,0.0,0.0,0.0,0.0,0.0,0.0,False,0,1730
-0.9903959631919861,-0.02635199949145317,0.1844639927148819,1.3650000095367432,-2.432500123977661,1.3562500476837158,-0.16366000473499298,-0.05025999993085861,-0.35322001576423645,0.0,0.0,0.0,0.0,0.0,0.0,False,0,1749
0.0,0.0,0.0,0.0,0.0,0.0,0.0,0.0,0.0,0.0078125,0.98876953125,0.19921875,0.0,0.0,0.0,False,0,1751
0.0,0.0,0.0,0.0,0.0,0.0,0.0,0.0,0.0,0.0,0.0,0.0,0.0,0.0,0.0,False,0,1742
-0.9903959631919861,-0.016835998743772507,0.18519599735736847,1.5750000476837158,-2.555000066757202,1.181249976158142,-0.163100004196167,-0.04983999952673912,-0.3561600148677826,0.0,0.0,0.0,0.0,0.0,0.0,False,0,1760
0.0,0.0,0.0,0.0,0.0,0.0,0.0,0.0,0.0,0.00732421875,0.9951171875,0.20947265625,0.0,0.0,0.0,False,0,1766
0.0,0.0,0.0,0.0,0.0,0.0,0.0,0.0,0.0,0.0,0.0,0.0,0.0,0.0,0.0,False,0,1757
-0.9896639585494995,-0.018300000578165054,0.1756799966096878,1.3125,-2.677500009536743,1.347499966621399,-0.16520000994205475,-0.04970000311732292,-0.35308000445365906,0.0,0.0,0.0,0.0,0.0,0.0,False,0,1777
0.0,0.0,0.0,0.0,0.0,0.0,0.0,0.0,0.0,-0.00146484375,0.9912109375,0.2099609375,0.0,0.0,0.0,False,0,1779
0.0,0.0,0.0,0.0,0.0,0.0,0.0,0.0,0.0,0.0,0.0,0.0,0.0,0.0,0.0,False,0,1770
-0.9955199956893921,-0.010979999788105488,0.1903200000524521,1.784999966621399,-2.546250104904175,1.225000023841858,-0.16660000383853912,-0.05320000275969505,-0.35868000984191895,0.0,0.0,0.0,0.0,0.0,0.0,False,0,1788
0.0,0.0,0.0,0.0,0.0,0.0,0.0,0.0,0.0,0.0048828125,0.9892578125,0.21728515625,0.0,0.0,0.0,False,0,1794
0.0,0.0,0.0,0.0,0.0,0.0,0.0,0.0,0.0,0.0,0.0,0.0,0.0,0.0,0.0,False,0,1785
-0.9918599724769592,-0.02122800052165985,0.1903200000524521,1.5487500429153442,-2.266249895095825,1.3562500476837158,-0.16058000922203064,-0.05320000275969505,-0.3508400022983551,0.0,0.0,0.0,0.0,0.0,0.0,False,0,1804
0.0,0.0,0.0,0.0,0.0,0.0,0.0,0.0,0.0,0.00390625,0.98779296875,0.208984375,0.0,0.0,0.0,False,0,1806
0.0,0.0,0.0,0.0,0.0,0.0,0.0,0.0,0.0,0.0,0.0,0.0,0.0,0.0,0.0,False,0,1798
-0.9896639585494995,-0.019763998687267303,0.18080399930477142,1.6800000667572021,-2.362499952316284,1.1987500190734863,-0.1622600108385086,-0.05432000011205673,-0.35784000158309937,0.0,0.0,0.0,0.0,0.0,0.0,False,0,1814
0.0,0.0,0.0,0.0,0.0,0.0,0.0,0.0,0.0,0.01171875,1.005859375,0.201171875,0.0,0.0,0.0,False,0,1819
0.0,0.0,0.0,0.0,0.0,0.0,0.0,0.0,0.0,0.0,0.0,0.0,0.0,0.0,0.0,False,0,1811
-0.9962520003318787,-0.010247999802231789,0.18885599076747894,1.6362500190734863,-2.1262500286102295,1.2862499952316284,-0.16155999898910522,-0.05194000154733658,-0.3675000071525574,0.0,0.0,0.0,0.0,0.0,0.0,False,0,1829
0.0,0.0,0.0,0.0,0.0,0.0,0.0,0.0,0.0,0.00732421875,1.013671875,0.205078125,0.0,0.0,0.0,False,0,1831
0.0,0.0,0.0,0.0,0.0,0.0,0.0,0.0,0.0,0.0,0.0,0.0,0.0,0.0,0.0,False,0,1823
-0.9955199956893921,-0.00878399983048439,0.1786080002784729,1.225000023841858,-2.572499990463257,1.3562500476837158,-0.1621199995279312,-0.05544000118970871,-0.36386001110076904,0.0,0.0,0.0,0.0,0.0,0.0,False,0,1839
0.0,0.0,0.0,0.0,0.0,0.0,0.0,0.0,0.0,0.00927734375,1.01416015625,0.20166015625,0.0,0.0,0.0,False,0,1844
0.0,0.0,0.0,0.0,0.0,0.0,0.0,0.0,0.0,0.0,0.0,0.0,0.0,0.0,0.0,False,0,1836
-1.0013760328292847,-0.013907999731600285,0.18007199466228485,1.3737499713897705,-2.598750114440918,1.3912500143051147,-0.16576001048088074,-0.05278000235557556,-0.3609200119972229,0.0,0.0,0.0,0.0,0.0,0.0,False,0,1855
0.0,0.0,0.0,0.0,0.0,0.0,0.0,0.0,0.0,0.00048828125,0.9912109375,0.20166015625,0.0,0.0,0.0,False,0,1857
0.0,0.0,0.0,0.0,0.0,0.0,0.0,0.0,0.0,0.0,0.0,0.0,0.0,0.0,0.0,False,0,1848
-0.9845399856567383,-0.008051999844610691,0.18592800199985504,1.5575000047683716,-2.791249990463257,1.3650000095367432,-0.16492000222206116,-0.044520001858472824,-0.3568600118160248,0.0,0.0,0.0,0.0,0.0,0.0,False,0,1865
0.0,0.0,0.0,0.0,0.0,0.0,0.0,0.0,0.0,0.009765625,1.00048828125,0.18896484375,0.0,0.0,0.0,False,0,1871
0.0,0.0,0.0,0.0,0.0,0.0,0.0,0.0,0.0,0.0,0.0,0.0,0.0,0.0,0.0,False,0,1862
-0.9896639585494995,-0.0226919986307621,0.19471199810504913,1.4874999523162842,-2.4937500953674316,1.3212499618530273,-0.162540003657341,-0.04633999988436699,-0.36246001720428467,0.0,0.0,0.0,0.0,0.0,0.0,False,0,1881
0.0,0.0,0.0,0.0,0.0,0.0,0.0,0.0,0.0,0.0087890625,0.99560546875,0.19287109375,0.0,0.0,0.0,False,0,1883
0.0,0.0,0.0,0.0,0.0,0.0,0.0,0.0,0.0,0.0,0.0,0.0,0.0,0.0,0.0,False,0,1875
-0.9918599724769592,-0.014639999717473984,0.18226799368858337,1.5399999618530273,-2.555000066757202,1.3300000429153442,-0.1572200059890747,-0.0508200004696846,-0.3519600033760071,0.0,0.0,0.0,0.0,0.0,0.0,False,0,1892
0.0,0.0,0.0,0.0,0.0,0.0,0.0,0.0,0.0,0.0087890625,0.99560546875,0.19287109375,0.0,0.0,0.0,False,0,1895
0.0,0.0,0.0,0.0,0.0,0.0,0.0,0.0,0.0,0.0,0.0,0.0,0.0,0.0,0.0,False,0,1889
-0.9955199956893921,-0.006587999872863293,0.17787599563598633,1.347499966621399,-2.5374999046325684,1.277500033378601,-0.16478000581264496,-0.05320000275969505,-0.36218002438545227,0.0,0.0,0.0,0.0,0.0,0.0,False,0,1903
0.0,0.0,0.0,0.0,0.0,0.0,0.0,0.0,0.0,0.00244140625,0.98388671875,0.205078125,0.0,0.0,0.0,False,0,1910
0.0,0.0,0.0,0.0,0.0,0.0,0.0,0.0,0.0,0.0,0.0,0.0,0.0,0.0,0.0,False,0,1901
-0.9896639585494995,-0.019763998687267303,0.18007199466228485,1.347499966621399,-2.677500009536743,1.2512500286102295,-0.15568000078201294,-0.05236000195145607,-0.3603599965572357,0.0,0.0,0.0,0.0,0.0,0.0,False,0,1916
0.0,0.0,0.0,0.0,0.0,0.0,0.0,0.0,0.0,-0.0048828125,0.978515625,0.21044921875,0.0,0.0,0.0,False,0,1924
0.0,0.0,0.0,0.0,0.0,0.0,0.0,0.0,0.0,0.0,0.0,0.0,0.0,0.0,0.0,False,0,1914
-0.9947879910469055,-0.018300000578165054,0.1903200000524521,1.6449999809265137,-2.432500123977661,1.3212499618530273,-0.16128000617027283,-0.057120002806186676,-0.36777999997138977,0.0,0.0,0.0,0.0,0.0,0.0,False,0,1929
0.0,0.0,0.0,0.0,0.0,0.0,0.0,0.0,0.0,0.00244140625,0.990234375,0.20263671875,0.0,0.0,0.0,False,0,1936
0.0,0.0,0.0,0.0,0.0,0.0,0.0,0.0,0.0,0.0,0.0,0.0,0.0,0.0,0.0,False,0,1927
-0.9955199956893921,-0.024156000465154648,0.19471199810504913,1.6100000143051147,-2.7300000190734863,1.3125,-0.1626800000667572,-0.05334000289440155,-0.355320006608963,0.0,0.0,0.0,0.0,0.0,0.0,False,0,1946
0.0,0.0,0.0,0.0,0.0,0.0,0.0,0.0,0.0,-0.001953125,0.99072265625,0.2060546875,0.0,0.0,0.0,False,0,1948
0.0,0.0,0.0,0.0,0.0,0.0,0.0,0.0,0.0,0.0,0.0,0.0,0.0,0.0,0.0,False,0,1939
-0.9918599724769592,-0.014639999717473984,0.18592800199985504,1.4350000619888306,-2.528749942779541,1.2424999475479126,-0.16422000527381897,-0.05403999984264374,-0.3600800037384033,0.0,0.0,0.0,0.0,0.0,0.0,False,0,1957
0.0,0.0,0.0,0.0,0.0,0.0,0.0,0.0,0.0,0.0048828125,0.9970703125,0.2001953125,0.0,0.0,0.0,False,0,1963
0.0,0.0,0.0,0.0,0.0,0.0,0.0,0.0,0.0,0.0,0.0,0.0,0.0,0.0,0.0,False,0,1954
-0.9889319539070129,-0.016835998743772507,0.17933999001979828,1.7237499952316284,-2.2750000953674316,1.3825000524520874,-0.16142000257968903,-0.054179999977350235,-0.36358001828193665,0.0,0.0,0.0,0.0,0.0,0.0,False,0,1974
0.0,0.0,0.0,0.0,0.0,0.0,0.0,0.0,0.0,-0.00146484375,1.01123046875,0.1904296875,0.0,0.0,0.0,False,0,1976
0.0,0.0,0.0,0.0,0.0,0.0,0.0,0.0,0.0,0.0,0.0,0.0,0.0,0.0,0.0,False,0,1967
-0.9925919771194458,-0.016835998743772507,0.19178399443626404,1.6449999809265137,-2.091249942779541,1.2074999809265137,-0.1670200079679489,-0.0560000017285347,-0.3654000163078308,0.0,0.0,0.0,0.0,0.0,0.0,False,0,1985
0.0,0.0,0.0,0.0,0.0,0.0,0.0,0.0,0.0,-0.0029296875,1.0029296875,0.19921875,0.0,0.0,0.0,False,0,1992
0.0,0.0,0.0,0.0,0.0,0.0,0.0,0.0,0.0,0.0,0.0,0.0,0.0,0.0,0.0,False,0,1982
-0.9889319539070129,-0.024887999519705772,0.18299999833106995,1.3737499713897705,-2.598750114440918,1.399999976158142,-0.16478000581264496,-0.05040000006556511,-0.355320006608963,0.0,0.0,0.0,0.0,0.0,0.0,False,0,1998
0.0,0.0,0.0,0.0,0.0,0.0,0.0,0.0,0.0,-0.013671875,0.994140625,0.2099609375,0.0,0.0,0.0,False,0,2005
0.0,0.0,0.0,0.0,0.0,0.0,0.0,0.0,0.0,0.0,0.0,0.0,0.0,0.0,0.0,False,0,1996
-0.9911279678344727,-0.013175999745726585,0.17202000319957733,1.4350000619888306,-2.6075000762939453,1.225000023841858,-0.16590000689029694,-0.0508200004696846,-0.3512600064277649,0.0,0.0,0.0,0.0,0.0,0.0,False,0,2015
0.0,0.0,0.0,0.0,0.0,0.0,0.0,0.0,0.0,-0.01513671875,0.9931640625,0.2060546875,0.0,0.0,0.0,False,0,2017
0.0,0.0,0.0,0.0,0.0,0.0,0.0,0.0,0.0,0.0,0.0,0.0,0.0,0.0,0.0,False,0,2008
-0.986735999584198,-0.014639999717473984,0.1786080002784729,1.6100000143051147,-2.528749942779541,1.190000057220459,-0.16492000222206116,-0.04872000217437744,-0.3595200181007385,0.0,0.0,0.0,0.0,0.0,0.0,False,0,2026
0.0,0.0,0.0,0.0,0.0,0.0,0.0,0.0,0.0,-0.01171875,0.98876953125,0.20361328125,0.0,0.0,0.0,False,0,2032
0.0,0.0,0.0,0.0,0.0,0.0,0.0,0.0,0.0,0.0,0.0,0.0,0.0,0.0,0.0,False,0,2023
-0.9969840049743652,-0.02122800052165985,0.1954440027475357,1.566249966621399,-2.432500123977661,1.3912500143051147,-0.16436000168323517,-0.050119999796152115,-0.3617600202560425,0.0,0.0,0.0,0.0,0.0,0.0,False,0,2043
0.0,0.0,0.0,0.0,0.0,0.0,0.0,0.0,0.0,-0.00830078125,0.98974609375,0.2001953125,0.0,0.0,0.0,False,0,2045
0.0,0.0,0.0,0.0,0.0,0.0,0.0,0.0,0.0,0.0,0.0,0.0,0.0,0.0,0.0,False,0,2036
-0.986735999584198,-0.010979999788105488,0.187391996383667,1.5924999713897705,-2.3887500762939453,1.347499966621399,-0.15470001101493835,-0.0508200004696846,-0.3717000186443329,0.0,0.0,0.0,0.0,0.0,0.0,False,0,2054
0.0,0.0,0.0,0.0,0.0,0.0,0.0,0.0,0.0,0.0107421875,0.99755859375,0.19189453125,0.0,0.0,0.0,False,0,2060
0.0,0.0,0.0,0.0,0.0,0.0,0.0,0.0,0.0,0.0,0.0,0.0,0.0,0.0,0.0,False,0,2051
-0.9933239817619324,-0.016103999689221382,0.18373200297355652,1.4612499475479126,-2.528749942779541,1.2862499952316284,-0.16184000670909882,-0.05040000006556511,-0.3600800037384033,0.0,0.0,0.0,0.0,0.0,0.0,False,0,2072
0.0,0.0,0.0,0.0,0.0,0.0,0.0,0.0,0.0,-0.00048828125,0.99658203125,0.19580078125,0.0,0.0,0.0,False,0,2074
0.0,0.0,0.0,0.0,0.0,0.0,0.0,0.0,0.0,0.0,0.0,0.0,0.0,0.0,0.0,False,0,2064
-0.9911279678344727,-0.021959999576210976,0.17421600222587585,1.9774999618530273,-2.1787500381469727,1.277500033378601,-0.16170001029968262,-0.050540000200271606,-0.36792001128196716,0.0,0.0,0.0,0.0,0.0,0.0,False,0,2085
0.0,0.0,0.0,0.0,0.0,0.0,0.0,0.0,0.0,-0.00634765625,0.9931640625,0.193359375,0.0,0.0,0.0,False,0,2086
0.0,0.0,0.0,0.0,0.0,0.0,0.0,0.0,0.0,0.0,0.0,0.0,0.0,0.0,0.0,False,0,2077
-0.9882000088691711,-0.024156000465154648,0.17348399758338928,1.627500057220459,-2.3450000286102295,1.1462500095367432,-0.16590000689029694,-0.04676000028848648,-0.3612000048160553,0.0,0.0,0.0,0.0,0.0,0.0,False,0,2095
0.0,0.0,0.0,0.0,0.0,0.0,0.0,0.0,0.0,-0.0205078125,0.9697265625,0.20458984375,0.0,0.0,0.0,False,0,2101
0.0,0.0,0.0,0.0,0.0,0.0,0.0,0.0,0.0,0.0,0.0,0.0,0.0,0.0,0.0,False,0,2092
-1.0006439685821533,-0.013175999745726585,0.1844639927148819,1.4175000190734863,-2.6862499713897705,1.3562500476837158,-0.16086000204086304,-0.05040000006556511,-0.3614799976348877,0.0,0.0,0.0,0.0,0.0,0.0,False,0,2112
0.0,0.0,0.0,0.0,0.0,0.0,0.0,0.0,0.0,-0.041015625,0.94970703125,0.21728515625,0.0,0.0,0.0,False,0,2114
0.0,0.0,0.0,0.0,0.0,0.0,0.0,0.0,0.0,0.0,0.0,0.0,0.0,0.0,0.0,False,0,2105
-0.986735999584198,-0.024887999519705772,0.0021959999576210976,1.7062499523162842,-2.555000066757202,1.4175000190734863,-0.16422000527381897,-0.05403999984264374,-0.35378000140190125,0.0,0.0,0.0,0.0,0.0,0.0,False,0,2123
0.0,0.0,0.0,0.0,0.0,0.0,0.0,0.0,0.0,-0.0126953125,0.96142578125,0.19921875,0.0,0.0,0.0,False,0,2129
0.0,0.0,0.0,0.0,0.0,0.0,0.0,0.0,0.0,0.0,0.0,0.0,0.0,0.0,0.0,False,0,2120
-0.9882000088691711,-0.024887999519705772,0.18885599076747894,1.3212499618530273,-2.3450000286102295,1.1725000143051147,-0.16492000222206116,-0.05656000226736069,-0.3600800037384033,0.0,0.0,0.0,0.0,0.0,0.0,False,0,2141
0.0,0.0,0.0,0.0,0.0,0.0,0.0,0.0,0.0,0.00146484375,0.97705078125,0.19091796875,0.0,0.0,0.0,False,0,2143
0.0,0.0,0.0,0.0,0.0,0.0,0.0,0.0,0.0,0.0,0.0,0.0,0.0,0.0,0.0,False,0,2133
-0.9918599724769592,-0.015371999703347683,0.1925159990787506,1.5837500095367432,-2.257499933242798,1.3212499618530273,-0.1624000072479248,-0.04844000190496445,-0.364980012178421,0.0,0.0,0.0,0.0,0.0,0.0,False,0,2154
0.0,0.0,0.0,0.0,0.0,0.0,0.0,0.0,0.0,-0.00048828125,1.00537109375,0.19775390625,0.0,0.0,0.0,False,0,2155
0.0,0.0,0.0,0.0,0.0,0.0,0.0,0.0,0.0,0.0,0.0,0.0,0.0,0.0,0.0,False,0,2146
-0.9882000088691711,-0.019763998687267303,0.17787599563598633,1.627500057220459,-2.1962499618530273,1.2599999904632568,-0.16170001029968262,-0.05236000195145607,-0.35938000679016113,0.0,0.0,0.0,0.0,0.0,0.0,False,0,2164
0.0,0.0,0.0,0.0,0.0,0.0,0.0,0.0,0.0,0.00341796875,1.00048828125,0.21875,0.0,0.0,0.0,False,0,2170
0.0,0.0,0.0,0.0,0.0,0.0,0.0,0.0,0.0,0.0,0.0,0.0,0.0,0.0,0.0,False,0,2161
-0.9896639585494995,-0.010979999788105488,0.18958799540996552,1.6887500286102295,-2.5199999809265137,1.3912500143051147,-0.15820001065731049,-0.05138000100851059,-0.35756000876426697,0.0,0.0,0.0,0.0,0.0,0.0,False,0,2181
0.0,0.0,0.0,0.0,0.0,0.0,0.0,0.0,0.0,-0.00439453125,0.9951171875,0.2177734375,0.0,0.0,0.0,False,0,2183
0.0,0.0,0.0,0.0,0.0,0.0,0.0,0.0,0.0,0.0,0.0,0.0,0.0,0.0,0.0,False,0,2174
-0.9969840049743652,-0.015371999703347683,0.17641200125217438,1.6537500619888306,-2.625,1.1549999713897705,-0.16617999970912933,-0.052640002220869064,-0.36302000284194946,0.0,0.0,0.0,0.0,0.0,0.0,False,0,2192
0.0,0.0,0.0,0.0,0.0,0.0,0.0,0.0,0.0,-0.0087890625,0.98681640625,0.216796875,0.0,0.0,0.0,False,0,2198
0.0,0.0,0.0,0.0,0.0,0.0,0.0,0.0,0.0,0.0,0.0,0.0,0.0,0.0,0.0,False,0,2189
-0.9882000088691711,-0.0226919986307621,0.18299999833106995,1.3912500143051147,-2.6162500381469727,1.408750057220459,-0.1626800000667572,-0.048020001500844955,-0.35756000876426697,0.0,0.0,0.0,0.0,0.0,0.0,False,0,2209
0.0,0.0,0.0,0.0,0.0,0.0,0.0,0.0,0.0,-0.0009765625,0.97705078125,0.20654296875,0.0,0.0,0.0,False,0,2211
0.0,0.0,0.0,0.0,0.0,0.0,0.0,0.0,0.0,0.0,0.0,0.0,0.0,0.0,0.0,False,0,2202
-0.9955199956893921,-0.018300000578165054,0.18226799368858337,1.4262499809265137,-2.5899999141693115,1.2862499952316284,-0.16016000509262085,-0.04774000123143196,-0.3609200119972229,0.0,0.0,0.0,0.0,0.0,0.0,False,0,2221
0.0,0.0,0.0,0.0,0.0,0.0,0.0,0.0,0.0,-0.00439453125,0.974609375,0.203125,0.0,0.0,0.0,False,0,2222
0.0,0.0,0.0,0.0,0.0,0.0,0.0,0.0,0.0,0.0,0.0,0.0,0.0,0.0,0.0,False,0,2218
-0.9896639585494995,-0.012443999759852886,0.1786080002784729,1.5137499570846558,-2.5374999046325684,1.3912500143051147,-0.16352000832557678,-0.04914000257849693,-0.3663800060749054,0.0,0.0,0.0,0.0,0.0,0.0,False,0,2233
0.0,0.0,0.0,0.0,0.0,0.0,0.0,0.0,0.0,-0.00341796875,0.9716796875,0.19921875,0.0,0.0,0.0,False,0,2239
0.0,0.0,0.0,0.0,0.0,0.0,0.0,0.0,0.0,0.0,0.0,0.0,0.0,0.0,0.0,False,0,2231
-0.9896639585494995,-0.015371999703347683,0.1954440027475357,1.496250033378601,-2.5637500286102295,1.1725000143051147,-0.1629600077867508,-0.04536000266671181,-0.3568600118160248,0.0,0.0,0.0,0.0,0.0,0.0,False,0,2250
0.0,0.0,0.0,0.0,0.0,0.0,0.0,0.0,0.0,0.00341796875,0.9794921875,0.20556640625,0.0,0.0,0.0,False,0,2252
0.0,0.0,0.0,0.0,0.0,0.0,0.0,0.0,0.0,0.0,0.0,0.0,0.0,0.0,0.0,False,0,2243
-0.9969840049743652,-0.02122800052165985,0.18885599076747894,1.5049999952316284,-4.471250057220459,1.4787499904632568,-0.1570800095796585,-0.04633999988436699,-0.35812002420425415,0.0,0.0,0.0,0.0,0.0,0.0,False,0,2261
0.0,0.0,0.0,0.0,0.0,0.0,0.0,0.0,0.0,-0.02099609375,0.9814453125,0.23291015625,0.0,0.0,0.0,False,0,2267
0.0,0.0,0.0,0.0,0.0,0.0,0.0,0.0,0.0,0.0,0.0,0.0,0.0,0.0,0.0,False,0,2258
-0.9911279678344727,-0.023423999547958374,0.18885599076747894,1.5399999618530273,-2.257499933242798,1.3300000429153442,-0.16534000635147095,-0.04816000163555145,-0.3567200005054474,0.0,0.0,0.0,0.0,0.0,0.0,False,0,2278
0.0,0.0,0.0,0.0,0.0,0.0,0.0,0.0,0.0,-0.01806640625,0.97021484375,0.21728515625,0.0,0.0,0.0,False,0,2280
0.0,0.0,0.0,0.0,0.0,0.0,0.0,0.0,0.0,0.0,0.0,0.0,0.0,0.0,0.0,False,0,2271
-0.9889319539070129,-0.024156000465154648,0.187391996383667,1.715000033378601,-2.4674999713897705,1.3737499713897705,-0.1624000072479248,-0.04284000024199486,-0.36834001541137695,0.0,0.0,0.0,0.0,0.0,0.0,False,0,2290
0.0,0.0,0.0,0.0,0.0,0.0,0.0,0.0,0.0,-0.01611328125,0.96923828125,0.21337890625,0.0,0.0,0.0,False,0,2291
0.0,0.0,0.0,0.0,0.0,0.0,0.0,0.0,0.0,0.0,0.0,0.0,0.0,0.0,0.0,False,0,2287
-0.9955199956893921,-0.02122800052165985,0.1756799966096878,1.618749976158142,-2.3975000381469727,1.3037500381469727,-0.16030000150203705,-0.04844000190496445,-0.35826000571250916,0.0,0.0,0.0,0.0,0.0,0.0,False,0,2302
0.0,0.0,0.0,0.0,0.0,0.0,0.0,0.0,0.0,-0.02294921875,0.9775390625,0.2177734375,0.0,0.0,0.0,False,0,2308
0.0,0.0,0.0,0.0,0.0,0.0,0.0,0.0,0.0,0.0,0.0,0.0,0.0,0.0,0.0,False,0,2300
-1.0043039321899414,-0.01756799966096878,0.1844639927148819,1.6100000143051147,-2.3887500762939453,1.3125,-0.16016000509262085,-0.05530000105500221,-0.3551799952983856,0.0,0.0,0.0,0.0,0.0,0.0,False,0,2319
0.0,0.0,0.0,0.0,0.0,0.0,0.0,0.0,0.0,-0.00390625,0.9873046875,0.21337890625,0.0,0.0,0.0,False,0,2321
0.0,0.0,0.0,0.0,0.0,0.0,0.0,0.0,0.0,0.0,0.0,0.0,0.0,0.0,0.0,False,0,2312
-0.9889319539070129,-0.019763998687267303,0.17641200125217438,1.7324999570846558,-2.5374999046325684,1.2949999570846558,-0.15931999683380127,-0.044940002262592316,-0.3605000078678131,0.0,0.0,0.0,0.0,0.0,0.0,False,0,2330
0.0,0.0,0.0,0.0,0.0,0.0,0.0,0.0,0.0,0.00634765625,1.01513671875,0.1982421875,0.0,0.0,0.0,False,0,2336
0.0,0.0,0.0,0.0,0.0,0.0,0.0,0.0,0.0,0.0,0.0,0.0,0.0,0.0,0.0,False,0,2327
-0.9903959631919861,-0.01903199963271618,0.1925159990787506,1.6100000143051147,-2.3975000381469727,1.53125,-0.15442000329494476,-0.04227999970316887,-0.3605000078678131,0.0,0.0,0.0,0.0,0.0,0.0,False,0,2347
0.0,0.0,0.0,0.0,0.0,0.0,0.0,0.0,0.0,-0.00244140625,1.01025390625,0.19775390625,0.0,0.0,0.0,False,0,2349
0.0,0.0,0.0,0.0,0.0,0.0,0.0,0.0,0.0,0.0,0.0,0.0,0.0,0.0,0.0,False,0,2340
-0.9962520003318787,-0.015371999703347683,0.1844639927148819,1.9512499570846558,-2.4674999713897705,1.277500033378601,-0.15666000545024872,-0.05194000154733658,-0.3551799952983856,0.0,0.0,0.0,0.0,0.0,0.0,False,0,2358
0.0,0.0,0.0,0.0,0.0,0.0,0.0,0.0,0.0,-0.00439453125,1.0078125,0.20361328125,0.0,0.0,0.0,False,0,2365
0.0,0.0,0.0,0.0,0.0,0.0,0.0,0.0,0.0,0.0,0.0,0.0,0.0,0.0,0.0,False,0,2355
-0.986735999584198,-0.016103999689221382,0.18226799368858337,1.8287500143051147,-2.231250047683716,1.277500033378601,-0.15637999773025513,-0.04788000136613846,-0.35812002420425415,0.0,0.0,0.0,0.0,0.0,0.0,False,0,2371
0.0,0.0,0.0,0.0,0.0,0.0,0.0,0.0,0.0,0.0048828125,1.01416015625,0.19580078125,0.0,0.0,0.0,False,0,2378
0.0,0.0,0.0,0.0,0.0,0.0,0.0,0.0,0.0,0.0,0.0,0.0,0.0,0.0,0.0,False,0,2369
-0.9969840049743652,-0.016103999689221382,0.187391996383667,1.6537500619888306,-2.1875,1.2162500619888306,-0.16016000509262085,-0.04130000248551369,-0.3614799976348877,0.0,0.0,0.0,0.0,0.0,0.0,False,0,2388
0.0,0.0,0.0,0.0,0.0,0.0,0.0,0.0,0.0,0.009765625,1.00146484375,0.201171875,0.0,0.0,0.0,False,0,2390
0.0,0.0,0.0,0.0,0.0,0.0,0.0,0.0,0.0,0.0,0.0,0.0,0.0,0.0,0.0,False,0,2381
-0.9852719902992249,-0.021959999576210976,0.18519599735736847,1.1024999618530273,-2.450000047683716,1.3125,-0.15049999952316284,-0.04102000221610069,-0.3715600073337555,0.0,0.0,0.0,0.0,0.0,0.0,False,0,2399
0.0,0.0,0.0,0.0,0.0,0.0,0.0,0.0,0.0,0.00146484375,0.98095703125,0.21533203125,0.0,0.0,0.0,False,0,2405
0.0,0.0,0.0,0.0,0.0,0.0,0.0,0.0,0.0,0.0,0.0,0.0,0.0,0.0,0.0,False,0,2396
-0.9933239817619324,-0.013175999745726585,0.18665999174118042,1.3737499713897705,-2.4237499237060547,1.347499966621399,-0.1577800065279007,-0.04227999970316887,-0.3571400046348572,0.0,0.0,0.0,0.0,0.0,0.0,False,0,2416
0.0,0.0,0.0,0.0,0.0,0.0,0.0,0.0,0.0,0.01123046875,0.99072265625,0.20361328125,0.0,0.0,0.0,False,0,2418
0.0,0.0,0.0,0.0,0.0,0.0,0.0,0.0,0.0,0.0,0.0,0.0,0.0,0.0,0.0,False,0,2409
-0.9903959631919861,-0.021959999576210976,0.187391996383667,1.5837500095367432,-2.5112500190734863,1.2162500619888306,-0.1570800095796585,-0.04788000136613846,-0.3662400245666504,0.0,0.0,0.0,0.0,0.0,0.0,False,0,2427
0.0,0.0,0.0,0.0,0.0,0.0,0.0,0.0,0.0,-0.0009765625,0.9755859375,0.201171875,0.0,0.0,0.0,False,0,2434
0.0,0.0,0.0,0.0,0.0,0.0,0.0,0.0,0.0,0.0,0.0,0.0,0.0,0.0,0.0,False,0,2424
-0.9889319539070129,-0.023423999547958374,0.18226799368858337,1.277500033378601,-2.432500123977661,1.3562500476837158,-0.15442000329494476,-0.05040000006556511,-0.3557400107383728,0.0,0.0,0.0,0.0,0.0,0.0,False,0,2440
0.0,0.0,0.0,0.0,0.0,0.0,0.0,0.0,0.0,-0.00048828125,1.0029296875,0.18603515625,0.0,0.0,0.0,False,0,2447
0.0,0.0,0.0,0.0,0.0,0.0,0.0,0.0,0.0,0.0,0.0,0.0,0.0,0.0,0.0,False,0,2438
-0.9933239817619324,-0.019763998687267303,0.18007199466228485,1.5924999713897705,-2.7825000286102295,1.2512500286102295,-0.1621199995279312,-0.04983999952673912,-0.355320006608963,0.0,0.0,0.0,0.0,0.0,0.0,False,0,2457
0.0,0.0,0.0,0.0,0.0,0.0,0.0,0.0,0.0,-0.0068359375,0.99951171875,0.2001953125,0.0,0.0,0.0,False,0,2459
0.0,0.0,0.0,0.0,0.0,0.0,0.0,0.0,0.0,0.0,0.0,0.0,0.0,0.0,0.0,False,0,2450
-0.9874680042266846,-0.013907999731600285,0.1903200000524521,1.5924999713897705,-2.6600000858306885,1.2424999475479126,-0.1577800065279007,-0.048580002039670944,-0.3558800220489502,0.0,0.0,0.0,0.0,0.0,0.0,False,0,2468
0.0,0.0,0.0,0.0,0.0,0.0,0.0,0.0,0.0,-0.0078125,0.98291015625,0.21435546875,0.0,0.0,0.0,False,0,2474
0.0,0.0,0.0,0.0,0.0,0.0,0.0,0.0,0.0,0.0,0.0,0.0,0.0,0.0,0.0,False,0,2465
-0.9947879910469055,-0.014639999717473984,0.1925159990787506,1.5049999952316284,-2.502500057220459,1.3387500047683716,-0.1521800011396408,-0.05278000235557556,-0.37380000948905945,0.0,0.0,0.0,0.0,0.0,0.0,False,0,2485
0.0,0.0,0.0,0.0,0.0,0.0,0.0,0.0,0.0,-0.00390625,0.9794921875,0.20849609375,0.0,0.0,0.0,False,0,2487
0.0,0.0,0.0,0.0,0.0,0.0,0.0,0.0,0.0,0.0,0.0,0.0,0.0,0.0,0.0,False,0,2478
-0.9977160096168518,-0.01903199963271618,0.18080399930477142,1.627500057220459,-2.3187499046325684,1.2949999570846558,-0.15372000634670258,-0.05040000006556511,-0.3614799976348877,0.0,0.0,0.0,0.0,0.0,0.0,False,0,2496
0.0,0.0,0.0,0.0,0.0,0.0,0.0,0.0,0.0,-0.015625,1.0009765625,0.2099609375,0.0,0.0,0.0,False,0,2502
0.0,0.0,0.0,0.0,0.0,0.0,0.0,0.0,0.0,0.0,0.0,0.0,0.0,0.0,0.0,False,0,2493
-0.994055986404419,-0.013175999745726585,0.18958799540996552,1.5049999952316284,-2.3975000381469727,1.277500033378601,-0.152319997549057,-0.04928000271320343,-0.35308000445365906,0.0,0.0,0.0,0.0,0.0,0.0,False,0,2514
0.0,0.0,0.0,0.0,0.0,0.0,0.0,0.0,0.0,-0.0224609375,0.9970703125,0.20947265625,0.0,0.0,0.0,False,0,2516
0.0,0.0,0.0,0.0,0.0,0.0,0.0,0.0,0.0,0.0,0.0,0.0,0.0,0.0,0.0,False,0,2506
-0.9911279678344727,-0.020495999604463577,0.1954440027475357,1.8637499809265137,-2.309999942779541,1.2862499952316284,-0.1579200029373169,-0.04633999988436699,-0.35798001289367676,0.0,0.0,0.0,0.0,0.0,0.0,False,0,2527
0.0,0.0,0.0,0.0,0.0,0.0,0.0,0.0,0.0,-0.01708984375,0.9921875,0.20361328125,0.0,0.0,0.0,False,0,2528
0.0,0.0,0.0,0.0,0.0,0.0,0.0,0.0,0.0,0.0,0.0,0.0,0.0,0.0,0.0,False,0,2519
-0.9874680042266846,-0.010979999788105488,0.1844639927148819,1.3650000095367432,-2.458750009536743,1.3912500143051147,-0.15652000904083252,-0.04942000284790993,-0.3610600233078003,0.0,0.0,0.0,0.0,0.0,0.0,False,0,2537
0.0,0.0,0.0,0.0,0.0,0.0,0.0,0.0,0.0,0.0107421875,1.01416015625,0.1982421875,0.0,0.0,0.0,False,0,2543
0.0,0.0,0.0,0.0,0.0,0.0,0.0,0.0,0.0,0.0,0.0,0.0,0.0,0.0,0.0,False,0,2534
-0.9845399856567383,-0.014639999717473984,0.18373200297355652,1.4612499475479126,-2.3450000286102295,1.2337499856948853,-0.16534000635147095,-0.0558600015938282,-0.3614799976348877,0.0,0.0,0.0,0.0,0.0,0.0,False,0,2554
0.0,0.0,0.0,0.0,0.0,0.0,0.0,0.0,0.0,0.01611328125,1.00732421875,0.19384765625,0.0,0.0,0.0,False,0,2556
0.0,0.0,0.0,0.0,0.0,0.0,0.0,0.0,0.0,0.0,0.0,0.0,0.0,0.0,0.0,False,0,2547
-0.9955199956893921,-0.01756799966096878,0.18885599076747894,1.4612499475479126,-2.3712499141693115,1.3825000524520874,-0.16043999791145325,-0.05348000302910805,-0.355320006608963,0.0,0.0,0.0,0.0,0.0,0.0,False,0,2565
0.0,0.0,0.0,0.0,0.0,0.0,0.0,0.0,0.0,0.00634765625,0.9990234375,0.20166015625,0.0,0.0,0.0,False,0,2571
0.0,0.0,0.0,0.0,0.0,0.0,0.0,0.0,0.0,0.0,0.0,0.0,0.0,0.0,0.0,False,0,2562
-0.9882000088691711,-0.014639999717473984,0.18519599735736847,1.2074999809265137,-2.5112500190734863,1.2337499856948853,-0.16142000257968903,-0.0558600015938282,-0.356440007686615,0.0,0.0,0.0,0.0,0.0,0.0,False,0,2583
0.0,0.0,0.0,0.0,0.0,0.0,0.0,0.0,0.0,0.00537109375,1.00146484375,0.20703125,0.0,0.0,0.0,False,0,2585
0.0,0.0,0.0,0.0,0.0,0.0,0.0,0.0,0.0,0.0,0.0,0.0,0.0,0.0,0.0,False,0,2575
-0.9962520003318787,-0.019763998687267303,0.18592800199985504,1.6449999809265137,-2.2750000953674316,1.2599999904632568,-0.16548000276088715,-0.04872000217437744,-0.3610600233078003,0.0,0.0,0.0,0.0,0.0,0.0,False,0,2596
0.0,0.0,0.0,0.0,0.0,0.0,0.0,0.0,0.0,0.0107421875,0.99658203125,0.22802734375,0.0,0.0,0.0,False,0,2597
0.0,0.0,0.0,0.0,0.0,0.0,0.0,0.0,0.0,0.0,0.0,0.0,0.0,0.0,0.0,False,0,2588
-0.994055986404419,-0.02635199949145317,0.19397999346256256,1.7237499952316284,-2.555000066757202,1.347499966621399,-0.1628200113773346,-0.05292000249028206,-0.3619000017642975,0.0,0.0,0.0,0.0,0.0,0.0,False,0,2606
0.0,0.0,0.0,0.0,0.0,0.0,0.0,0.0,0.0,0.00390625,0.998046875,0.22802734375,0.0,0.0,0.0,False,0,2612
0.0,0.0,0.0,0.0,0.0,0.0,0.0,0.0,0.0,0.0,0.0,0.0,0.0,0.0,0.0,False,0,2603
-1.0035719871520996,-0.024156000465154648,0.19105198979377747,1.6800000667572021,-2.555000066757202,1.225000023841858,-0.1580599993467331,-0.05754000321030617,-0.3701600134372711,0.0,0.0,0.0,0.0,0.0,0.0,False,0,2623
0.0,0.0,0.0,0.0,0.0,0.0,0.0,0.0,0.0,0.01123046875,1.00048828125,0.21240234375,0.0,0.0,0.0,False,0,2625
0.0,0.0,0.0,0.0,0.0,0.0,0.0,0.0,0.0,0.0,0.0,0.0,0.0,0.0,0.0,False,0,2616
-0.9955199956893921,-0.013907999731600285,0.18812400102615356,1.618749976158142,-2.4412500858306885,1.2074999809265137,-0.15680000185966492,-0.04872000217437744,-0.36386001110076904,0.0,0.0,0.0,0.0,0.0,0.0,False,0,2634
0.0,0.0,0.0,0.0,0.0,0.0,0.0,0.0,0.0,0.01171875,0.998046875,0.20849609375,0.0,0.0,0.0,False,0,2640
0.0,0.0,0.0,0.0,0.0,0.0,0.0,0.0,0.0,0.0,0.0,0.0,0.0,0.0,0.0,False,0,2631
-0.9874680042266846,-0.01903199963271618,0.19690799713134766,1.347499966621399,-2.0562500953674316,1.1725000143051147,-0.1621199995279312,-0.04830000177025795,-0.35910001397132874,0.0,0.0,0.0,0.0,0.0,0.0,False,0,2651
0.0,0.0,0.0,0.0,0.0,0.0,0.0,0.0,0.0,-0.00048828125,0.998046875,0.19677734375,0.0,0.0,0.0,False,0,2653
0.0,0.0,0.0,0.0,0.0,0.0,0.0,0.0,0.0,0.0,0.0,0.0,0.0,0.0,0.0,False,0,2644
-0.9896639585494995,-0.020495999604463577,0.18885599076747894,1.4874999523162842,-2.6162500381469727,1.128749966621399,-0.1629600077867508,-0.04633999988436699,-0.3666599988937378,0.0,0.0,0.0,0.0,0.0,0.0,False,0,2663
0.0,0.0,0.0,0.0,0.0,0.0,0.0,0.0,0.0,-0.00146484375,1.00244140625,0.19921875,0.0,0.0,0.0,False,0,2664
0.0,0.0,0.0,0.0,0.0,0.0,0.0,0.0,0.0,0.0,0.0,0.0,0.0,0.0,0.0,False,0,2660
-0.9918599724769592,-0.013907999731600285,0.1903200000524521,1.3650000095367432,-2.6862499713897705,1.225000023841858,-0.1574999988079071,-0.04746000096201897,-0.3654000163078308,0.0,0.0,0.0,0.0,0.0,0.0,False,0,2675
0.0,0.0,0.0,0.0,0.0,0.0,0.0,0.0,0.0,-0.00244140625,1.00341796875,0.1953125,0.0,0.0,0.0,False,0,2681
0.0,0.0,0.0,0.0,0.0,0.0,0.0,0.0,0.0,0.0,0.0,0.0,0.0,0.0,0.0,False,0,2673
-0.9918599724769592,-0.018300000578165054,0.18080399930477142,1.3562500476837158,-2.817500114440918,1.190000057220459,-0.16548000276088715,-0.05292000249028206,-0.36329999566078186,0.0,0.0,0.0,0.0,0.0,0.0,False,0,2692
0.0,0.0,0.0,0.0,0.0,0.0,0.0,0.0,0.0,-0.00341796875,1.00341796875,0.203125,0.0,0.0,0.0,False,0,2694
0.0,0.0,0.0,0.0,0.0,0.0,0.0,0.0,0.0,0.0,0.0,0.0,0.0,0.0,0.0,False,0,2685
-1.0021079778671265,-0.01756799966096878,0.1925159990787506,1.4350000619888306,-2.4237499237060547,1.4262499809265137,-0.1632400006055832,-0.0509600006043911,-0.36316001415252686,0.0,0.0,0.0,0.0,0.0,0.0,False,0,2703
0.0,0.0,0.0,0.0,0.0,0.0,0.0,0.0,0.0,0.0048828125,0.9970703125,0.205078125,0.0,0.0,0.0,False,0,2709
0.0,0.0,0.0,0.0,0.0,0.0,0.0,0.0,0.0,0.0,0.0,0.0,0.0,0.0,0.0,False,0,2700
-0.981611967086792,-0.010247999802231789,0.18592800199985504,1.6537500619888306,-2.336250066757202,1.2862499952316284,-0.16099999845027924,-0.04816000163555145,-0.35364001989364624,0.0,0.0,0.0,0.0,0.0,0.0,False,0,2720
0.0,0.0,0.0,0.0,0.0,0.0,0.0,0.0,0.0,0.01123046875,1.00537109375,0.197265625,0.0,0.0,0.0,False,0,2722
0.0,0.0,0.0,0.0,0.0,0.0,0.0,0.0,0.0,0.0,0.0,0.0,0.0,0.0,0.0,False,0,2713
-0.9882000088691711,-0.018300000578165054,0.19178399443626404,1.5575000047683716,-2.6337499618530273,1.1462500095367432,-0.162540003657341,-0.04732000082731247,-0.3666599988937378,0.0,0.0,0.0,0.0,0.0,0.0,False,0,2732
0.0,0.0,0.0,0.0,0.0,0.0,0.0,0.0,0.0,0.0107421875,1.001953125,0.20263671875,0.0,0.0,0.0,False,0,2733
0.0,0.0,0.0,0.0,0.0,0.0,0.0,0.0,0.0,0.0,0.0,0.0,0.0,0.0,0.0,False,0,2729
-0.9896639585494995,-0.024887999519705772,0.18226799368858337,1.6800000667572021,-2.5199999809265137,1.3300000429153442,-0.15610000491142273,-0.0459199994802475,-0.35868000984191895,0.0,0.0,0.0,0.0,0.0,0.0,False,0,2744
0.0,0.0,0.0,0.0,0.0,0.0,0.0,0.0,0.0,0.00634765625,1.0068359375,0.2060546875,0.0,0.0,0.0,False,0,2750
0.0,0.0,0.0,0.0,0.0,0.0,0.0,0.0,0.0,0.0,0.0,0.0,0.0,0.0,0.0,False,0,2742
-0.9911279678344727,-0.024887999519705772,0.16835999488830566,1.5049999952316284,-2.108750104904175,1.2949999570846558,-0.15540000796318054,-0.05432000011205673,-0.3571400046348572,0.0,0.0,0.0,0.0,0.0,0.0,False,0,2761
0.0,0.0,0.0,0.0,0.0,0.0,0.0,0.0,0.0,-0.00439453125,0.9833984375,0.22265625,0.0,0.0,0.0,False,0,2763
0.0,0.0,0.0,0.0,0.0,0.0,0.0,0.0,0.0,0.0,0.0,0.0,0.0,0.0,0.0,False,0,2754
-0.9889319539070129,-0.013907999731600285,0.18592800199985504,1.4874999523162842,-2.3712499141693115,1.5137499570846558,-0.16393999755382538,-0.04746000096201897,-0.35294002294540405,0.0,0.0,0.0,0.0,0.0,0.0,False,0,2772
0.0,0.0,0.0,0.0,0.0,0.0,0.0,0.0,0.0,-0.00830078125,0.9765625,0.208984375,0.0,0.0,0.0,False,0,2778
0.0,0.0,0.0,0.0,0.0,0.0,0.0,0.0,0.0,0.0,0.0,0.0,0.0,0.0,0.0,False,0,2769
-0.9933239817619324,-0.013175999745726585,0.18592800199985504,1.5137499570846558,-2.546250104904175,1.2687499523162842,-0.15399999916553497,-0.04508000239729881,-0.35923999547958374,0.0,0.0,0.0,0.0,0.0,0.0,False,0,2789
0.0,0.0,0.0,0.0,0.0,0.0,0.0,0.0,0.0,-0.015625,0.984375,0.2099609375,0.0,0.0,0.0,False,0,2791
0.0,0.0,0.0,0.0,0.0,0.0,0.0,0.0,0.0,0.0,0.0,0.0,0.0,0.0,0.0,False,0,2782
-0.9947879910469055,-0.00951599981635809,0.17933999001979828,1.6100000143051147,-2.5112500190734863,1.408750057220459,-0.15637999773025513,-0.04774000123143196,-0.3614799976348877,0.0,0.0,0.0,0.0,0.0,0.0,False,0,2800
0.0,0.0,0.0,0.0,0.0,0.0,0.0,0.0,0.0,-0.015625,0.986328125,0.20751953125,0.0,0.0,0.0,False,0,2807
0.0,0.0,0.0,0.0,0.0,0.0,0.0,0.0,0.0,0.0,0.0,0.0,0.0,0.0,0.0,False,0,2797
-0.9933239817619324,-0.02122800052165985,0.1815359890460968,1.784999966621399,-2.362499952316284,1.3037500381469727,-0.15554000437259674,-0.048020001500844955,-0.3620400130748749,0.0,0.0,0.0,0.0,0.0,0.0,False,0,2813
0.0,0.0,0.0,0.0,0.0,0.0,0.0,0.0,0.0,-0.01025390625,0.9833984375,0.20361328125,0.0,0.0,0.0,False,0,2820
0.0,0.0,0.0,0.0,0.0,0.0,0.0,0.0,0.0,0.0,0.0,0.0,0.0,0.0,0.0,False,0,2811
-0.9991799592971802,-0.014639999717473984,0.18592800199985504,1.6800000667572021,-2.694999933242798,1.3825000524520874,-0.16099999845027924,-0.047600001096725464,-0.3620400130748749,0.0,0.0,0.0,0.0,0.0,0.0,False,0,2830
0.0,0.0,0.0,0.0,0.0,0.0,0.0,0.0,0.0,-0.001953125,0.9833984375,0.203125,0.0,0.0,0.0,False,0,2832
0.0,0.0,0.0,0.0,0.0,0.0,0.0,0.0,0.0,0.0,0.0,0.0,0.0,0.0,0.0,False,0,2823
-0.9889319539070129,-0.019763998687267303,0.18665999174118042,1.3387500047683716,-2.4674999713897705,1.4350000619888306,-0.1580599993467331,-0.05292000249028206,-0.36274001002311707,0.0,0.0,0.0,0.0,0.0,0.0,False,0,2841
0.0,0.0,0.0,0.0,0.0,0.0,0.0,0.0,0.0,0.00390625,0.98828125,0.2099609375,0.0,0.0,0.0,False,0,2847
0.0,0.0,0.0,0.0,0.0,0.0,0.0,0.0,0.0,0.0,0.0,0.0,0.0,0.0,0.0,False,0,2838
-0.9947879910469055,-0.019763998687267303,0.19324800372123718,1.4350000619888306,-2.6424999237060547,1.347499966621399,-0.15904000401496887,-0.04970000311732292,-0.3623200058937073,0.0,0.0,0.0,0.0,0.0,0.0,False,0,2858
0.0,0.0,0.0,0.0,0.0,0.0,0.0,0.0,0.0,-0.01611328125,0.9892578125,0.21630859375,0.0,0.0,0.0,False,0,2860
0.0,0.0,0.0,0.0,0.0,0.0,0.0,0.0,0.0,0.0,0.0,0.0,0.0,0.0,0.0,False,0,2851
-0.9874680042266846,-0.013907999731600285,0.18592800199985504,1.7062499523162842,-2.476249933242798,1.347499966621399,-0.15946000814437866,-0.048580002039670944,-0.3558800220489502,0.0,0.0,0.0,0.0,0.0,0.0,False,0,2869
0.0,0.0,0.0,0.0,0.0,0.0,0.0,0.0,0.0,-0.00927734375,0.99072265625,0.2099609375,0.0,0.0,0.0,False,0,2875
0.0,0.0,0.0,0.0,0.0,0.0,0.0,0.0,0.0,0.0,0.0,0.0,0.0,0.0,0.0,False,0,2866
-0.9889319539070129,-0.015371999703347683,0.19397999346256256,1.662500023841858,-2.283750057220459,1.399999976158142,-0.15820001065731049,-0.047600001096725464,-0.36371999979019165,0.0,0.0,0.0,0.0,0.0,0.0,False,0,2887
0.0,0.0,0.0,0.0,0.0,0.0,0.0,0.0,0.0,-0.0068359375,0.994140625,0.2197265625,0.0,0.0,0.0,False,0,2889
0.0,0.0,0.0,0.0,0.0,0.0,0.0,0.0,0.0,0.0,0.0,0.0,0.0,0.0,0.0,False,0,2879
-0.9999119639396667,-0.02122800052165985,0.1954440027475357,1.3212499618530273,-2.362499952316284,1.2424999475479126,-0.15540000796318054,-0.04816000163555145,-0.3555999994277954,0.0,0.0,0.0,0.0,0.0,0.0,False,0,2900
0.0,0.0,0.0,0.0,0.0,0.0,0.0,0.0,0.0,-0.00244140625,0.9931640625,0.224609375,0.0,0.0,0.0,False,0,2901
0.0,0.0,0.0,0.0,0.0,0.0,0.0,0.0,0.0,0.0,0.0,0.0,0.0,0.0,0.0,False,0,2892
-0.9947879910469055,-0.01903199963271618,0.187391996383667,1.2599999904632568,-2.5199999809265137,1.1549999713897705,-0.15330000221729279,-0.05025999993085861,-0.35853999853134155,0.0,0.0,0.0,0.0,0.0,0.0,False,0,2910
0.0,0.0,0.0,0.0,0.0,0.0,0.0,0.0,0.0,0.01806640625,1.005859375,0.1962890625,0.0,0.0,0.0,False,0,2916
0.0,0.0,0.0,0.0,0.0,0.0,0.0,0.0,0.0,0.0,0.0,0.0,0.0,0.0,0.0,False,0,2907
-1.0006439685821533,-0.005123999901115894,0.1786080002784729,1.5575000047683716,-2.6862499713897705,1.4262499809265137,-0.15596000850200653,-0.05138000100851059,-0.3600800037384033,0.0,0.0,0.0,0.0,0.0,0.0,False,0,2927
0.0,0.0,0.0,0.0,0.0,0.0,0.0,0.0,0.0,0.00390625,0.99658203125,0.19091796875,0.0,0.0,0.0,False,0,2929
0.0,0.0,0.0,0.0,0.0,0.0,0.0,0.0,0.0,0.0,0.0,0.0,0.0,0.0,0.0,False,0,2920
-0.9977160096168518,-0.016103999689221382,0.18885599076747894,1.6012500524520874,-2.8612499237060547,1.0674999952316284,-0.15372000634670258,-0.04844000190496445,-0.35798001289367676,0.0,0.0,0.0,0.0,0.0,0.0,False,0,2938
0.0,0.0,0.0,0.0,0.0,0.0,0.0,0.0,0.0,-0.00537109375,0.98193359375,0.208984375,0.0,0.0,0.0,False,0,2944
0.0,0.0,0.0,0.0,0.0,0.0,0.0,0.0,0.0,0.0,0.0,0.0,0.0,0.0,0.0,False,0,2935
-0.9925919771194458,-0.01756799966096878,0.19105198979377747,1.5225000381469727,-2.6337499618530273,1.0850000381469727,-0.1574999988079071,-0.04368000105023384,-0.36918002367019653,0.0,0.0,0.0,0.0,0.0,0.0,False,0,2956
0.0,0.0,0.0,0.0,0.0,0.0,0.0,0.0,0.0,-0.009765625,0.98193359375,0.20068359375,0.0,0.0,0.0,False,0,2958
0.0,0.0,0.0,0.0,0.0,0.0,0.0,0.0,0.0,0.0,0.0,0.0,0.0,0.0,0.0,False,0,2948
-0.994055986404419,-0.020495999604463577,0.1903200000524521,1.5837500095367432,-2.240000009536743,1.1024999618530273,-0.15078000724315643,-0.046480000019073486,-0.3595200181007385,0.0,0.0,0.0,0.0,0.0,0.0,False,0,2969
0.0,0.0,0.0,0.0,0.0,0.0,0.0,0.0,0.0,-0.00244140625,0.982421875,0.20458984375,0.0,0.0,0.0,False,0,2970
0.0,0.0,0.0,0.0,0.0,0.0,0.0,0.0,0.0,0.0,0.0,0.0,0.0,0.0,0.0,False,0,2961
-0.994055986404419,-0.023423999547958374,0.18812400102615356,1.618749976158142,-2.2225000858306885,1.3125,-0.1580599993467331,-0.05446000024676323,-0.3547600209712982,0.0,0.0,0.0,0.0,0.0,0.0,False,0,2979
0.0,0.0,0.0,0.0,0.0,0.0,0.0,0.0,0.0,0.00830078125,0.98486328125,0.20556640625,0.0,0.0,0.0,False,0,2985
0.0,0.0,0.0,0.0,0.0,0.0,0.0,0.0,0.0,0.0,0.0,0.0,0.0,0.0,0.0,False,0,2976
-0.9874680042266846,-0.016103999689221382,0.18958799540996552,1.4787499904632568,-2.1962499618530273,1.3825000524520874,-0.16464000940322876,-0.051660001277923584,-0.3549000024795532,0.0,0.0,0.0,0.0,0.0,0.0,False,0,2996
0.0,0.0,0.0,0.0,0.0,0.0,0.0,0.0,0.0,0.00830078125,0.98583984375,0.1982421875,0.0,0.0,0.0,False,0,2998
0.0,0.0,0.0,0.0,0.0,0.0,0.0,0.0,0.0,0.0,0.0,0.0,0.0,0.0,0.0,False,0,2989
-0.9918599724769592,-0.005123999901115894,0.1727519929409027,1.443750023841858,-2.528749942779541,1.2862499952316284,-0.16660000383853912,-0.04732000082731247,-0.35938000679016113,0.0,0.0,0.0,0.0,0.0,0.0,False,0,3007
0.0,0.0,0.0,0.0,0.0,0.0,0.0,0.0,0.0,-0.00244140625,0.99755859375,0.20166015625,0.0,0.0,0.0,False,0,3013
0.0,0.0,0.0,0.0,0.0,0.0,0.0,0.0,0.0,0.0,0.0,0.0,0.0,0.0,0.0,False,0,3004
-0.9947879910469055,-0.016103999689221382,0.18080399930477142,1.3562500476837158,-2.5112500190734863,1.347499966621399,-0.16436000168323517,-0.047600001096725464,-0.35965999960899353,0.0,0.0,0.0,0.0,0.0,0.0,False,0,3024
0.0,0.0,0.0,0.0,0.0,0.0,0.0,0.0,0.0,-0.001953125,0.9990234375,0.2041015625,0.0,0.0,0.0,False,0,3026
0.0,0.0,0.0,0.0,0.0,0.0,0.0,0.0,0.0,0.0,0.0,0.0,0.0,0.0,0.0,False,0,3017
-0.986735999584198,-0.02635199949145317,0.18299999833106995,1.4350000619888306,-2.694999933242798,1.190000057220459,-0.1621199995279312,-0.05236000195145607,-0.35923999547958374,0.0,0.0,0.0,0.0,0.0,0.0,False,0,3036
0.0,0.0,0.0,0.0,0.0,0.0,0.0,0.0,0.0,-0.00439453125,0.99951171875,0.1982421875,0.0,0.0,0.0,False,0,3037
0.0,0.0,0.0,0.0,0.0,0.0,0.0,0.0,0.0,0.0,0.0,0.0,0.0,0.0,0.0,False,0,3033
-0.9933239817619324,-0.016835998743772507,0.18080399930477142,1.5750000476837158,-2.257499933242798,1.1200000047683716,-0.15960000455379486,-0.05320000275969505,-0.34874001145362854,0.0,0.0,0.0,0.0,0.0,0.0,False,0,3048
0.0,0.0,0.0,0.0,0.0,0.0,0.0,0.0,0.0,-0.00537109375,1.0009765625,0.2001953125,0.0,0.0,0.0,False,0,3054
0.0,0.0,0.0,0.0,0.0,0.0,0.0,0.0,0.0,0.0,0.0,0.0,0.0,0.0,0.0,False,0,3046
-0.9918599724769592,-0.005123999901115894,0.19397999346256256,1.399999976158142,-2.5637500286102295,1.225000023841858,-0.15834000706672668,-0.049560002982616425,-0.3558800220489502,0.0,0.0,0.0,0.0,0.0,0.0,False,0,3065
0.0,0.0,0.0,0.0,0.0,0.0,0.0,0.0,0.0,-0.01025390625,0.99267578125,0.2080078125,0.0,0.0,0.0,False,0,3067
0.0,0.0,0.0,0.0,0.0,0.0,0.0,0.0,0.0,0.0,0.0,0.0,0.0,0.0,0.0,False,0,3058
-0.9838079810142517,-0.013175999745726585,0.18007199466228485,1.881250023841858,-2.7300000190734863,1.4874999523162842,-0.15428000688552856,-0.04942000284790993,-0.35392001271247864,0.0,0.0,0.0,0.0,0.0,0.0,False,0,3076
0.0,0.0,0.0,0.0,0.0,0.0,0.0,0.0,0.0,-0.00439453125,0.986328125,0.21533203125,0.0,0.0,0.0,False,0,3082
0.0,0.0,0.0,0.0,0.0,0.0,0.0,0.0,0.0,0.0,0.0,0.0,0.0,0.0,0.0,False,0,3073
-0.9947879910469055,-0.024887999519705772,0.18373200297355652,1.566249966621399,-2.502500057220459,1.3912500143051147,-0.16030000150203705,-0.049000002443790436,-0.35840001702308655,0.0,0.0,0.0,0.0,0.0,0.0,False,0,3093
0.0,0.0,0.0,0.0,0.0,0.0,0.0,0.0,0.0,-0.00537109375,0.984375,0.20751953125,0.0,0.0,0.0,False,0,3095
0.0,0.0,0.0,0.0,0.0,0.0,0.0,0.0,0.0,0.0,0.0,0.0,0.0,0.0,0.0,False,0,3086
-0.9999119639396667,-0.015371999703347683,0.1983719915151596,1.6537500619888306,-2.2225000858306885,1.2162500619888306,-0.15946000814437866,-0.051660001277923584,-0.3568600118160248,0.0,0.0,0.0,0.0,0.0,0.0,False,0,3105
0.0,0.0,0.0,0.0,0.0,0.0,0.0,0.0,0.0,-0.00390625,0.98974609375,0.1953125,0.0,0.0,0.0,False,0,3106
0.0,0.0,0.0,0.0,0.0,0.0,0.0,0.0,0.0,0.0,0.0,0.0,0.0,0.0,0.0,False,0,3102
-0.9969840049743652,-0.02122800052165985,0.19324800372123718,1.7675000429153442,-2.4149999618530273,1.4350000619888306,-0.16954000294208527,-0.05866000056266785,-0.3567200005054474,0.0,0.0,0.0,0.0,0.0,0.0,False,0,3117
0.0,0.0,0.0,0.0,0.0,0.0,0.0,0.0,0.0,-0.009765625,0.99658203125,0.21630859375,0.0,0.0,0.0,False,0,3123
0.0,0.0,0.0,0.0,0.0,0.0,0.0,0.0,0.0,0.0,0.0,0.0,0.0,0.0,0.0,False,0,3115
-0.9977160096168518,-0.0226919986307621,0.17933999001979828,1.6362500190734863,-2.502500057220459,1.4350000619888306,-0.16534000635147095,-0.04914000257849693,-0.34776002168655396,0.0,0.0,0.0,0.0,0.0,0.0,False,0,3134
0.0,0.0,0.0,0.0,0.0,0.0,0.0,0.0,0.0,-0.01220703125,0.994140625,0.22509765625,0.0,0.0,0.0,False,0,3136
0.0,0.0,0.0,0.0,0.0,0.0,0.0,0.0,0.0,0.0,0.0,0.0,0.0,0.0,0.0,False,0,3127
-1.0028399229049683,-0.02122800052165985,0.18080399930477142,1.3562500476837158,-2.546250104904175,1.347499966621399,-0.16478000581264496,-0.04633999988436699,-0.3554600179195404,0.0,0.0,0.0,0.0,0.0,0.0,False,0,3145
0.0,0.0,0.0,0.0,0.0,0.0,0.0,0.0,0.0,-0.009765625,0.9970703125,0.19775390625,0.0,0.0,0.0,False,0,3151
0.0,0.0,0.0,0.0,0.0,0.0,0.0,0.0,0.0,0.0,0.0,0.0,0.0,0.0,0.0,False,0,3142
-0.9903959631919861,-0.019763998687267303,0.18812400102615356,1.496250033378601,-2.117500066757202,1.181249976158142,-0.16043999791145325,-0.04830000177025795,-0.3598000109195709,0.0,0.0,0.0,0.0,0.0,0.0,False,0,3162
0.0,0.0,0.0,0.0,0.0,0.0,0.0,0.0,0.0,-0.0048828125,1.0029296875,0.1875,0.0,0.0,0.0,False,0,3164
0.0,0.0,0.0,0.0,0.0,0.0,0.0,0.0,0.0,0.0,0.0,0.0,0.0,0.0,0.0,False,0,3155
-0.9896639585494995,-0.015371999703347683,0.19178399443626404,1.53125,-2.353749990463257,1.496250033378601,-0.16072000563144684,-0.05250000208616257,-0.3551799952983856,0.0,0.0,0.0,0.0,0.0,0.0,False,0,3173
0.0,0.0,0.0,0.0,0.0,0.0,0.0,0.0,0.0,-0.00048828125,0.99267578125,0.19384765625,0.0,0.0,0.0,False,0,3180
0.0,0.0,0.0,0.0,0.0,0.0,0.0,0.0,0.0,0.0,0.0,0.0,0.0,0.0,0.0,False,0,3170
-0.9977160096168518,-0.020495999604463577,0.18885599076747894,1.4524999856948853,-2.870000123977661,1.2424999475479126,-0.1677200049161911,-0.05320000275969505,-0.35294002294540405,0.0,0.0,0.0,0.0,0.0,0.0,False,0,3186
0.0,0.0,0.0,0.0,0.0,0.0,0.0,0.0,0.0,0.00927734375,1.001953125,0.1904296875,0.0,0.0,0.0,False,0,3193
0.0,0.0,0.0,0.0,0.0,0.0,0.0,0.0,0.0,0.0,0.0,0.0,0.0,0.0,0.0,False,0,3184
-0.9903959631919861,-0.01903199963271618,0.1786080002784729,1.1637500524520874,-2.450000047683716,1.3125,-0.1670200079679489,-0.04340000078082085,-0.3617600202560425,0.0,0.0,0.0,0.0,0.0,0.0,False,0,3203
0.0,0.0,0.0,0.0,0.0,0.0,0.0,0.0,0.0,0.0029296875,0.9912109375,0.1923828125,0.0,0.0,0.0,False,0,3205
0.0,0.0,0.0,0.0,0.0,0.0,0.0,0.0,0.0,0.0,0.0,0.0,0.0,0.0,0.0,False,0,3196
-0.9903959631919861,-0.021959999576210976,0.18299999833106995,1.6012500524520874,-2.362499952316284,1.2074999809265137,-0.16617999970912933,-0.04746000096201897,-0.3668000102043152,0.0,0.0,0.0,0.0,0.0,0.0,False,0,3214
0.0,0.0,0.0,0.0,0.0,0.0,0.0,0.0,0.0,-0.00244140625,0.99072265625,0.19873046875,0.0,0.0,0.0,False,0,3220
0.0,0.0,0.0,0.0,0.0,0.0,0.0,0.0,0.0,0.0,0.0,0.0,0.0,0.0,0.0,False,0,3211
-0.9852719902992249,-0.02635199949145317,0.17933999001979828,1.443750023841858,-2.4674999713897705,1.3737499713897705,-0.16520000994205475,-0.04774000123143196,-0.3599400222301483,0.0,0.0,0.0,0.0,0.0,0.0,False,0,3231
0.0,0.0,0.0,0.0,0.0,0.0,0.0,0.0,0.0,-0.00732421875,0.982421875,0.21484375,0.0,0.0,0.0,False,0,3233
0.0,0.0,0.0,0.0,0.0,0.0,0.0,0.0,0.0,0.0,0.0,0.0,0.0,0.0,0.0,False,0,3224
-0.9911279678344727,-0.02635199949145317,0.18226799368858337,1.662500023841858,-2.7387499809265137,1.277500033378601,-0.15861999988555908,-0.050680000334978104,-0.35784000158309937,0.0,0.0,0.0,0.0,0.0,0.0,False,0,3242
0.0,0.0,0.0,0.0,0.0,0.0,0.0,0.0,0.0,0.00048828125,0.9921875,0.2080078125,0.0,0.0,0.0,False,0,3249
0.0,0.0,0.0,0.0,0.0,0.0,0.0,0.0,0.0,0.0,0.0,0.0,0.0,0.0,0.0,False,0,3239
-0.986735999584198,-0.02122800052165985,0.17494799196720123,1.3737499713897705,-2.484999895095825,1.3912500143051147,-0.1678600013256073,-0.051100000739097595,-0.34902000427246094,0.0,0.0,0.0,0.0,0.0,0.0,False,0,3255
0.0,0.0,0.0,0.0,0.0,0.0,0.0,0.0,0.0,0.0029296875,0.984375,0.19775390625,0.0,0.0,0.0,False,0,3262
0.0,0.0,0.0,0.0,0.0,0.0,0.0,0.0,0.0,0.0,0.0,0.0,0.0,0.0,0.0,False,0,3253
-0.9947879910469055,-0.010979999788105488,0.18299999833106995,1.5399999618530273,-2.353749990463257,1.2687499523162842,-0.1629600077867508,-0.04774000123143196,-0.3570000231266022,0.0,0.0,0.0,0.0,0.0,0.0,False,0,3272
0.0,0.0,0.0,0.0,0.0,0.0,0.0,0.0,0.0,0.001953125,0.99072265625,0.21337890625,0.0,0.0,0.0,False,0,3274
0.0,0.0,0.0,0.0,0.0,0.0,0.0,0.0,0.0,0.0,0.0,0.0,0.0,0.0,0.0,False,0,3265
-0.9955199956893921,-0.016835998743772507,0.1903200000524521,1.6537500619888306,-2.432500123977661,1.2687499523162842,-0.16590000689029694,-0.04676000028848648,-0.35280001163482666,0.0,0.0,0.0,0.0,0.0,0.0,False,0,3283
0.0,0.0,0.0,0.0,0.0,0.0,0.0,0.0,0.0,-0.0048828125,0.99658203125,0.2158203125,0.0,0.0,0.0,False,0,3289
0.0,0.0,0.0,0.0,0.0,0.0,0.0,0.0,0.0,0.0,0.0,0.0,0.0,0.0,0.0,False,0,3280
-0.9889319539070129,-0.018300000578165054,0.18226799368858337,1.7062499523162842,-2.572499990463257,1.2949999570846558,-0.15876001119613647,-0.04886000230908394,-0.35308000445365906,0.0,0.0,0.0,0.0,0.0,0.0,False,0,3300
0.0,0.0,0.0,0.0,0.0,0.0,0.0,0.0,0.0,-0.0048828125,0.99658203125,0.2158203125,0.0,0.0,0.0,False,0,3302
0.0,0.0,0.0,0.0,0.0,0.0,0.0,0.0,0.0,0.0,0.0,0.0,0.0,0.0,0.0,False,0,3293
-0.9925919771194458,-0.01756799966096878,0.1756799966096878,1.6100000143051147,-2.502500057220459,1.2599999904632568,-0.1629600077867508,-0.051100000739097595,-0.3570000231266022,0.0,0.0,0.0,0.0,0.0,0.0,False,0,3311
0.0,0.0,0.0,0.0,0.0,0.0,0.0,0.0,0.0,-0.0087890625,0.99365234375,0.21923828125,0.0,0.0,0.0,False,0,3317
0.0,0.0,0.0,0.0,0.0,0.0,0.0,0.0,0.0,0.0,0.0,0.0,0.0,0.0,0.0,False,0,3308
-0.9947879910469055,-0.018300000578165054,0.19105198979377747,1.5399999618530273,-2.3012499809265137,1.181249976158142,-0.1632400006055832,-0.04690000042319298,-0.35923999547958374,0.0,0.0,0.0,0.0,0.0,0.0,False,0,3329
0.0,0.0,0.0,0.0,0.0,0.0,0.0,0.0,0.0,-0.00439453125,1.00146484375,0.212890625,0.0,0.0,0.0,False,0,3331
0.0,0.0,0.0,0.0,0.0,0.0,0.0,0.0,0.0,0.0,0.0,0.0,0.0,0.0,0.0,False,0,3321
-0.9823439717292786,-0.020495999604463577,0.18812400102615356,1.662500023841858,-2.4412500858306885,1.4175000190734863,-0.16198000311851501,-0.05460000038146973,-0.3600800037384033,0.0,0.0,0.0,0.0,0.0,0.0,False,0,3342
0.0,0.0,0.0,0.0,0.0,0.0,0.0,0.0,0.0,-0.0029296875,0.99365234375,0.20751953125,0.0,0.0,0.0,False,0,3343
0.0,0.0,0.0,0.0,0.0,0.0,0.0,0.0,0.0,0.0,0.0,0.0,0.0,0.0,0.0,False,0,3334
-1.0013760328292847,-0.015371999703347683,0.187391996383667,1.627500057220459,-2.6862499713897705,1.3912500143051147,-0.1624000072479248,-0.04872000217437744,-0.3557400107383728,0.0,0.0,0.0,0.0,0.0,0.0,False,0,3352
0.0,0.0,0.0,0.0,0.0,0.0,0.0,0.0,0.0,0.00537109375,0.99462890625,0.20263671875,0.0,0.0,0.0,False,0,3358
0.0,0.0,0.0,0.0,0.0,0.0,0.0,0.0,0.0,0.0,0.0,0.0,0.0,0.0,0.0,False,0,3349
-0.9955199956893921,-0.0226919986307621,0.18080399930477142,1.6362500190734863,-2.6075000762939453,1.128749966621399,-0.16114000976085663,-0.05432000011205673,-0.3495800197124481,0.0,0.0,0.0,0.0,0.0,0.0,False,0,3369
0.0,0.0,0.0,0.0,0.0,0.0,0.0,0.0,0.0,0.01171875,0.99365234375,0.2001953125,0.0,0.0,0.0,False,0,3371
0.0,0.0,0.0,0.0,0.0,0.0,0.0,0.0,0.0,0.0,0.0,0.0,0.0,0.0,0.0,False,0,3362
-0.9903959631919861,-0.01903199963271618,0.18226799368858337,1.399999976158142,-2.677500009536743,1.2949999570846558,-0.163100004196167,-0.051660001277923584,-0.3460800051689148,0.0,0.0,0.0,0.0,0.0,0.0,False,0,3380
0.0,0.0,0.0,0.0,0.0,0.0,0.0,0.0,0.0,0.0068359375,0.98681640625,0.19921875,0.0,0.0,0.0,False,0,3386
0.0,0.0,0.0,0.0,0.0,0.0,0.0,0.0,0.0,0.0,0.0,0.0,0.0,0.0,0.0,False,0,3377
-0.9962520003318787,-0.018300000578165054,0.18665999174118042,1.2687499523162842,-2.4937500953674316,1.1112500429153442,-0.16366000473499298,-0.046480000019073486,-0.3571400046348572,0.0,0.0,0.0,0.0,0.0,0.0,False,0,3398
0.0,0.0,0.0,0.0,0.0,0.0,0.0,0.0,0.0,0.00439453125,0.990234375,0.1953125,0.0,0.0,0.0,False,0,3400
0.0,0.0,0.0,0.0,0.0,0.0,0.0,0.0,0.0,0.0,0.0,0.0,0.0,0.0,0.0,False,0,3390
-0.9977160096168518,-0.01756799966096878,0.19324800372123718,1.3387500047683716,-2.3975000381469727,1.2687499523162842,-0.16170001029968262,-0.05558000132441521,-0.3602200150489807,0.0,0.0,0.0,0.0,0.0,0.0,False,0,3411
0.0,0.0,0.0,0.0,0.0,0.0,0.0,0.0,0.0,0.00927734375,0.9970703125,0.18408203125,0.0,0.0,0.0,False,0,3412
0.0,0.0,0.0,0.0,0.0,0.0,0.0,0.0,0.0,0.0,0.0,0.0,0.0,0.0,0.0,False,0,3403
-0.9896639585494995,-0.021959999576210976,0.19105198979377747,1.7412500381469727,-2.502500057220459,1.4700000286102295,-0.16114000976085663,-0.04746000096201897,-0.35882002115249634,0.0,0.0,0.0,0.0,0.0,0.0,False,0,3421
0.0,0.0,0.0,0.0,0.0,0.0,0.0,0.0,0.0,0.001953125,0.994140625,0.19775390625,0.0,0.0,0.0,False,0,3427
0.0,0.0,0.0,0.0,0.0,0.0,0.0,0.0,0.0,0.0,0.0,0.0,0.0,0.0,0.0,False,0,3418
-0.9925919771194458,-0.016103999689221382,0.19764000177383423,1.6537500619888306,-2.257499933242798,1.2687499523162842,-0.16408000886440277,-0.05194000154733658,-0.35280001163482666,0.0,0.0,0.0,0.0,0.0,0.0,False,0,3438
0.0,0.0,0.0,0.0,0.0,0.0,0.0,0.0,0.0,-0.00439453125,0.99609375,0.20458984375,0.0,0.0,0.0,False,0,3440
0.0,0.0,0.0,0.0,0.0,0.0,0.0,0.0,0.0,0.0,0.0,0.0,0.0,0.0,0.0,False,0,3431
-0.9918599724769592,-0.02635199949145317,0.18592800199985504,1.7675000429153442,-1.933750033378601,1.4350000619888306,-0.16478000581264496,-0.0457800030708313,-0.3565800189971924,0.0,0.0,0.0,0.0,0.0,0.0,False,0,3449
0.0,0.0,0.0,0.0,0.0,0.0,0.0,0.0,0.0,0.0,0.98828125,0.208984375,0.0,0.0,0.0,False,0,3455
0.0,0.0,0.0,0.0,0.0,0.0,0.0,0.0,0.0,0.0,0.0,0.0,0.0,0.0,0.0,False,0,3446
-0.9984479546546936,-0.01903199963271618,0.1844639927148819,1.6362500190734863,-2.484999895095825,1.408750057220459,-0.16561999917030334,-0.0509600006043911,-0.36274001002311707,0.0,0.0,0.0,0.0,0.0,0.0,False,0,3466
0.0,0.0,0.0,0.0,0.0,0.0,0.0,0.0,0.0,0.0029296875,0.98876953125,0.2080078125,0.0,0.0,0.0,False,0,3468
0.0,0.0,0.0,0.0,0.0,0.0,0.0,0.0,0.0,0.0,0.0,0.0,0.0,0.0,0.0,False,0,3459
-0.9933239817619324,-0.013175999745726585,0.17714399099349976,1.6362500190734863,-2.3450000286102295,1.1725000143051147,-0.16674000024795532,-0.05375999957323074,-0.3505600094795227,0.0,0.0,0.0,0.0,0.0,0.0,False,0,3478
0.0,0.0,0.0,0.0,0.0,0.0,0.0,0.0,0.0,0.00830078125,0.99267578125,0.20068359375,0.0,0.0,0.0,False,0,3479
0.0,0.0,0.0,0.0,0.0,0.0,0.0,0.0,0.0,0.0,0.0,0.0,0.0,0.0,0.0,False,0,3475
-0.9991799592971802,-0.016103999689221382,0.18665999174118042,1.4787499904632568,-2.572499990463257,1.2949999570846558,-0.1682800054550171,-0.052080001682043076,-0.3522399961948395,0.0,0.0,0.0,0.0,0.0,0.0,False,0,3490
0.0,0.0,0.0,0.0,0.0,0.0,0.0,0.0,0.0,0.0068359375,0.9921875,0.1943359375,0.0,0.0,0.0,False,0,3496
0.0,0.0,0.0,0.0,0.0,0.0,0.0,0.0,0.0,0.0,0.0,0.0,0.0,0.0,0.0,False,0,3488
-0.9911279678344727,-0.024887999519705772,0.18812400102615356,1.5049999952316284,-2.240000009536743,1.1725000143051147,-0.16128000617027283,-0.04816000163555145,-0.35322001576423645,0.0,0.0,0.0,0.0,0.0,0.0,False,0,3507
0.0,0.0,0.0,0.0,0.0,0.0,0.0,0.0,0.0,0.01318359375,1.0185546875,0.18212890625,0.0,0.0,0.0,False,0,3509
0.0,0.0,0.0,0.0,0.0,0.0,0.0,0.0,0.0,0.0,0.0,0.0,0.0,0.0,0.0,False,0,3500
-0.9896639585494995,-0.019763998687267303,0.19324800372123718,1.5137499570846558,-2.625,1.2949999570846558,-0.15637999773025513,-0.05152000114321709,-0.35965999960899353,0.0,0.0,0.0,0.0,0.0,0.0,False,0,3518
0.0,0.0,0.0,0.0,0.0,0.0,0.0,0.0,0.0,0.00830078125,0.9990234375,0.1943359375,0.0,0.0,0.0,False,0,3524
0.0,0.0,0.0,0.0,0.0,0.0,0.0,0.0,0.0,0.0,0.0,0.0,0.0,0.0,0.0,False,0,3515
-0.9977160096168518,-0.01903199963271618,0.17421600222587585,1.4175000190734863,-2.7562499046325684,1.1987500190734863,-0.15637999773025513,-0.0508200004696846,-0.35882002115249634,0.0,0.0,0.0,0.0,0.0,0.0,False,0,3535
0.0,0.0,0.0,0.0,0.0,0.0,0.0,0.0,0.0,0.00341796875,0.978515625,0.20751953125,0.0,0.0,0.0,False,0,3537
0.0,0.0,0.0,0.0,0.0,0.0,0.0,0.0,0.0,0.0,0.0,0.0,0.0,0.0,0.0,False,0,3528
-0.9977160096168518,-0.014639999717473984,0.19105198979377747,1.9162499904632568,-2.3887500762939453,1.181249976158142,-0.162540003657341,-0.053620003163814545,-0.3508400022983551,0.0,0.0,0.0,0.0,0.0,0.0,False,0,3547
0.0,0.0,0.0,0.0,0.0,0.0,0.0,0.0,0.0,0.00146484375,0.98046875,0.20361328125,0.0,0.0,0.0,False,0,3548
0.0,0.0,0.0,0.0,0.0,0.0,0.0,0.0,0.0,0.0,0.0,0.0,0.0,0.0,0.0,False,0,3544
-0.9801479578018188,-0.014639999717473984,0.18592800199985504,1.7675000429153442,-2.362499952316284,1.181249976158142,-0.1629600077867508,-0.048580002039670944,-0.3497200012207031,0.0,0.0,0.0,0.0,0.0,0.0,False,0,3559
0.0,0.0,0.0,0.0,0.0,0.0,0.0,0.0,0.0,-0.00439453125,0.9970703125,0.19677734375,0.0,0.0,0.0,False,0,3565
0.0,0.0,0.0,0.0,0.0,0.0,0.0,0.0,0.0,0.0,0.0,0.0,0.0,0.0,0.0,False,0,3557
-0.9896639585494995,-0.013175999745726585,0.19178399443626404,1.5924999713897705,-2.3450000286102295,1.128749966621399,-0.1685599982738495,-0.04619999974966049,-0.3508400022983551,0.0,0.0,0.0,0.0,0.0,0.0,False,0,3576
0.0,0.0,0.0,0.0,0.0,0.0,0.0,0.0,0.0,0.0068359375,1.00732421875,0.197265625,0.0,0.0,0.0,False,0,3578
0.0,0.0,0.0,0.0,0.0,0.0,0.0,0.0,0.0,0.0,0.0,0.0,0.0,0.0,0.0,False,0,3569
-0.9874680042266846,-0.02122800052165985,0.18592800199985504,1.399999976158142,-2.7125000953674316,1.1725000143051147,-0.16128000617027283,-0.05403999984264374,-0.3551799952983856,0.0,0.0,0.0,0.0,0.0,0.0,False,0,3587
0.0,0.0,0.0,0.0,0.0,0.0,0.0,0.0,0.0,0.00439453125,0.97314453125,0.20947265625,0.0,0.0,0.0,False,0,3593
0.0,0.0,0.0,0.0,0.0,0.0,0.0,0.0,0.0,0.0,0.0,0.0,0.0,0.0,0.0,False,0,3584
-1.0006439685821533,-0.021959999576210976,0.18373200297355652,1.6012500524520874,-2.5112500190734863,1.3212499618530273,-0.16870000958442688,-0.051660001277923584,-0.34356001019477844,0.0,0.0,0.0,0.0,0.0,0.0,False,0,3604
0.0,0.0,0.0,0.0,0.0,0.0,0.0,0.0,0.0,0.00341796875,0.97998046875,0.21533203125,0.0,0.0,0.0,False,0,3606
0.0,0.0,0.0,0.0,0.0,0.0,0.0,0.0,0.0,0.0,0.0,0.0,0.0,0.0,0.0,False,0,3597
-0.994055986404419,-0.023423999547958374,0.18299999833106995,1.408750057220459,-2.484999895095825,1.2512500286102295,-0.16422000527381897,-0.0610400028526783,-0.34860000014305115,0.0,0.0,0.0,0.0,0.0,0.0,False,0,3615
0.0,0.0,0.0,0.0,0.0,0.0,0.0,0.0,0.0,0.005859375,0.99365234375,0.20361328125,0.0,0.0,0.0,False,0,3624
0.0,0.0,0.0,0.0,0.0,0.0,0.0,0.0,0.0,0.0,0.0,0.0,0.0,0.0,0.0,False,0,3612
-0.9969840049743652,-0.02122800052165985,0.1756799966096878,1.4175000190734863,-2.240000009536743,1.0850000381469727,-0.16198000311851501,-0.04844000190496445,-0.3507000207901001,0.0,0.0,0.0,0.0,0.0,0.0,False,0,3630
0.0,0.0,0.0,0.0,0.0,0.0,0.0,0.0,0.0,0.00830078125,0.99267578125,0.19580078125,0.0,0.0,0.0,False,0,3637
0.0,0.0,0.0,0.0,0.0,0.0,0.0,0.0,0.0,0.0,0.0,0.0,0.0,0.0,0.0,False,0,3628
-0.9874680042266846,-0.008051999844610691,0.19105198979377747,1.399999976158142,-2.5199999809265137,1.3037500381469727,-0.16590000689029694,-0.050540000200271606,-0.35784000158309937,0.0,0.0,0.0,0.0,0.0,0.0,False,0,3647
0.0,0.0,0.0,0.0,0.0,0.0,0.0,0.0,0.0,-0.00390625,0.98291015625,0.2060546875,0.0,0.0,0.0,False,0,3649
0.0,0.0,0.0,0.0,0.0,0.0,0.0,0.0,0.0,0.0,0.0,0.0,0.0,0.0,0.0,False,0,3640
-0.9999119639396667,-0.019763998687267303,0.1903200000524521,1.6449999809265137,-2.038749933242798,1.4612499475479126,-0.16436000168323517,-0.05460000038146973,-0.36400002241134644,0.0,0.0,0.0,0.0,0.0,0.0,False,0,3658
0.0,0.0,0.0,0.0,0.0,0.0,0.0,0.0,0.0,-0.00048828125,0.9833984375,0.2109375,0.0,0.0,0.0,False,0,3664
0.0,0.0,0.0,0.0,0.0,0.0,0.0,0.0,0.0,0.0,0.0,0.0,0.0,0.0,0.0,False,0,3655
-0.9977160096168518,-0.013175999745726585,0.18007199466228485,1.566249966621399,-2.1787500381469727,1.3912500143051147,-0.1573600023984909,-0.05236000195145607,-0.35335999727249146,0.0,0.0,0.0,0.0,0.0,0.0,False,0,3675
0.0,0.0,0.0,0.0,0.0,0.0,0.0,0.0,0.0,-0.00390625,0.99853515625,0.2099609375,0.0,0.0,0.0,False,0,3677
0.0,0.0,0.0,0.0,0.0,0.0,0.0,0.0,0.0,0.0,0.0,0.0,0.0,0.0,0.0,False,0,3668
-0.9911279678344727,-0.01756799966096878,0.18080399930477142,1.3912500143051147,-2.651250123977661,1.496250033378601,-0.16352000832557678,-0.046059999614953995,-0.3514000177383423,0.0,0.0,0.0,0.0,0.0,0.0,False,0,3686
0.0,0.0,0.0,0.0,0.0,0.0,0.0,0.0,0.0,-0.00732421875,0.9921875,0.212890625,0.0,0.0,0.0,False,0,3693
0.0,0.0,0.0,0.0,0.0,0.0,0.0,0.0,0.0,0.0,0.0,0.0,0.0,0.0,0.0,False,0,3683
-0.9933239817619324,-0.013907999731600285,0.18299999833106995,1.347499966621399,-2.7125000953674316,1.3562500476837158,-0.16366000473499298,-0.0456400029361248,-0.35238000750541687,0.0,0.0,0.0,0.0,0.0,0.0,False,0,3699
0.0,0.0,0.0,0.0,0.0,0.0,0.0,0.0,0.0,-0.0068359375,0.9931640625,0.20947265625,0.0,0.0,0.0,False,0,3706
0.0,0.0,0.0,0.0,0.0,0.0,0.0,0.0,0.0,0.0,0.0,0.0,0.0,0.0,0.0,False,0,3697
-0.9962520003318787,-0.014639999717473984,0.17348399758338928,1.3387500047683716,-2.651250123977661,1.277500033378601,-0.15581999719142914,-0.046620000153779984,-0.35420000553131104,0.0,0.0,0.0,0.0,0.0,0.0,False,0,3716
0.0,0.0,0.0,0.0,0.0,0.0,0.0,0.0,0.0,-0.0048828125,0.98876953125,0.20361328125,0.0,0.0,0.0,False,0,3718
0.0,0.0,0.0,0.0,0.0,0.0,0.0,0.0,0.0,0.0,0.0,0.0,0.0,0.0,0.0,False,0,3709
-0.9889319539070129,-0.03367199748754501,0.19105198979377747,1.4612499475479126,-2.5112500190734863,1.3300000429153442,-0.1622600108385086,-0.05348000302910805,-0.3602200150489807,0.0,0.0,0.0,0.0,0.0,0.0,False,0,3727
0.0,0.0,0.0,0.0,0.0,0.0,0.0,0.0,0.0,-0.00341796875,0.98193359375,0.2177734375,0.0,0.0,0.0,False,0,3733
0.0,0.0,0.0,0.0,0.0,0.0,0.0,0.0,0.0,0.0,0.0,0.0,0.0,0.0,0.0,False,0,3724
-0.9874680042266846,-0.016103999689221382,0.19617599248886108,1.6974999904632568,-2.3975000381469727,1.277500033378601,-0.16002000868320465,-0.054740000516176224,-0.3546200096607208,0.0,0.0,0.0,0.0,0.0,0.0,False,0,3744
0.0,0.0,0.0,0.0,0.0,0.0,0.0,0.0,0.0,0.0,0.99169921875,0.21240234375,0.0,0.0,0.0,False,0,3746
0.0,0.0,0.0,0.0,0.0,0.0,0.0,0.0,0.0,0.0,0.0,0.0,0.0,0.0,0.0,False,0,3737
-1.0013760328292847,-0.010979999788105488,0.17933999001979828,1.4700000286102295,-2.257499933242798,1.3212499618530273,-0.16617999970912933,-0.04466000199317932,-0.3497200012207031,0.0,0.0,0.0,0.0,0.0,0.0,False,0,3755
0.0,0.0,0.0,0.0,0.0,0.0,0.0,0.0,0.0,-0.00390625,0.99072265625,0.2138671875,0.0,0.0,0.0,False,0,3761
0.0,0.0,0.0,0.0,0.0,0.0,0.0,0.0,0.0,0.0,0.0,0.0,0.0,0.0,0.0,False,0,3752
-0.9962520003318787,-0.02122800052165985,0.18299999833106995,1.5137499570846558,-2.887500047683716,1.2512500286102295,-0.1622600108385086,-0.052640002220869064,-0.3543400168418884,0.0,0.0,0.0,0.0,0.0,0.0,False,0,3773
0.0,0.0,0.0,0.0,0.0,0.0,0.0,0.0,0.0,-0.00390625,0.99072265625,0.2138671875,0.0,0.0,0.0,False,0,3775
0.0,0.0,0.0,0.0,0.0,0.0,0.0,0.0,0.0,0.0,0.0,0.0,0.0,0.0,0.0,False,0,3765
-0.9991799592971802,-0.016835998743772507,0.19105198979377747,1.5575000047683716,-2.4674999713897705,1.2424999475479126,-0.16422000527381897,-0.04872000217437744,-0.3565800189971924,0.0,0.0,0.0,0.0,0.0,0.0,False,0,3786
0.0,0.0,0.0,0.0,0.0,0.0,0.0,0.0,0.0,-0.00244140625,0.990234375,0.2060546875,0.0,0.0,0.0,False,0,3787
0.0,0.0,0.0,0.0,0.0,0.0,0.0,0.0,0.0,0.0,0.0,0.0,0.0,0.0,0.0,False,0,3778
-0.9903959631919861,-0.015371999703347683,0.20349599421024323,1.662500023841858,-2.143749952316284,1.3387500047683716,-0.1677200049161911,-0.04844000190496445,-0.3472000062465668,0.0,0.0,0.0,0.0,0.0,0.0,False,0,3796
0.0,0.0,0.0,0.0,0.0,0.0,0.0,0.0,0.0,-0.0126953125,0.982421875,0.21484375,0.0,0.0,0.0,False,0,3802
0.0,0.0,0.0,0.0,0.0,0.0,0.0,0.0,0.0,0.0,0.0,0.0,0.0,0.0,0.0,False,0,3793
-0.9955199956893921,-0.018300000578165054,0.18592800199985504,1.8200000524520874,-2.2750000953674316,1.1549999713897705,-0.1670200079679489,-0.05194000154733658,-0.35923999547958374,0.0,0.0,0.0,0.0,0.0,0.0,False,0,3813
0.0,0.0,0.0,0.0,0.0,0.0,0.0,0.0,0.0,-0.0078125,0.970703125,0.2119140625,0.0,0.0,0.0,False,0,3815
0.0,0.0,0.0,0.0,0.0,0.0,0.0,0.0,0.0,0.0,0.0,0.0,0.0,0.0,0.0,False,0,3806
-0.9991799592971802,-0.015371999703347683,0.17714399099349976,1.5575000047683716,-2.4674999713897705,1.2074999809265137,-0.16352000832557678,-0.04942000284790993,-0.3521000146865845,0.0,0.0,0.0,0.0,0.0,0.0,False,0,3824
0.0,0.0,0.0,0.0,0.0,0.0,0.0,0.0,0.0,0.00341796875,0.9833984375,0.2119140625,0.0,0.0,0.0,False,0,3830
0.0,0.0,0.0,0.0,0.0,0.0,0.0,0.0,0.0,0.0,0.0,0.0,0.0,0.0,0.0,False,0,3821
-0.9925919771194458,-0.01903199963271618,0.18519599735736847,1.3825000524520874,-2.309999942779541,1.2337499856948853,-0.16464000940322876,-0.05250000208616257,-0.3595200181007385,0.0,0.0,0.0,0.0,0.0,0.0,False,0,3842
0.0,0.0,0.0,0.0,0.0,0.0,0.0,0.0,0.0,0.00537109375,0.9921875,0.208984375,0.0,0.0,0.0,False,0,3844
0.0,0.0,0.0,0.0,0.0,0.0,0.0,0.0,0.0,0.0,0.0,0.0,0.0,0.0,0.0,False,0,3834
-0.9947879910469055,-0.01903199963271618,0.187391996383667,1.4175000190734863,-2.7300000190734863,1.2337499856948853,-0.16366000473499298,-0.05180000141263008,-0.3465000092983246,0.0,0.0,0.0,0.0,0.0,0.0,False,0,3855
0.0,0.0,0.0,0.0,0.0,0.0,0.0,0.0,0.0,0.00830078125,0.9990234375,0.208984375,0.0,0.0,0.0,False,0,3856
0.0,0.0,0.0,0.0,0.0,0.0,0.0,0.0,0.0,0.0,0.0,0.0,0.0,0.0,0.0,False,0,3847
-0.9925919771194458,-0.024887999519705772,0.18592800199985504,1.566249966621399,-2.747499942779541,1.347499966621399,-0.1674399971961975,-0.050119999796152115,-0.35308000445365906,0.0,0.0,0.0,0.0,0.0,0.0,False,0,3865
0.0,0.0,0.0,0.0,0.0,0.0,0.0,0.0,0.0,-0.0087890625,0.990234375,0.185546875,0.0,0.0,0.0,False,0,3871
0.0,0.0,0.0,0.0,0.0,0.0,0.0,0.0,0.0,0.0,0.0,0.0,0.0,0.0,0.0,False,0,3862
-0.9918599724769592,-0.01903199963271618,0.18226799368858337,1.6362500190734863,-2.4412500858306885,1.1024999618530273,-0.16170001029968262,-0.0508200004696846,-0.3616200089454651,0.0,0.0,0.0,0.0,0.0,0.0,False,0,3882
0.0,0.0,0.0,0.0,0.0,0.0,0.0,0.0,0.0,-0.0126953125,0.97607421875,0.1669921875,0.0,0.0,0.0,False,0,3884
0.0,0.0,0.0,0.0,0.0,0.0,0.0,0.0,0.0,0.0,0.0,0.0,0.0,0.0,0.0,False,0,3875
-0.9925919771194458,-0.01903199963271618,0.18885599076747894,1.846250057220459,-2.1700000762939453,1.225000023841858,-0.1624000072479248,-0.054179999977350235,-0.35868000984191895,0.0,0.0,0.0,0.0,0.0,0.0,False,0,3893
0.0,0.0,0.0,0.0,0.0,0.0,0.0,0.0,0.0,-0.005859375,1.00390625,0.19580078125,0.0,0.0,0.0,False,0,3899
0.0,0.0,0.0,0.0,0.0,0.0,0.0,0.0,0.0,0.0,0.0,0.0,0.0,0.0,0.0,False,0,3890
-0.9889319539070129,-0.0226919986307621,0.18226799368858337,1.662500023841858,-2.336250066757202,1.190000057220459,-0.16561999917030334,-0.05628000199794769,-0.3561600148677826,0.0,0.0,0.0,0.0,0.0,0.0,False,0,3910
0.0,0.0,0.0,0.0,0.0,0.0,0.0,0.0,0.0,-0.005859375,1.0185546875,0.19140625,0.0,0.0,0.0,False,0,3912
0.0,0.0,0.0,0.0,0.0,0.0,0.0,0.0,0.0,0.0,0.0,0.0,0.0,0.0,0.0,False,0,3903
-0.994055986404419,-0.013907999731600285,0.17714399099349976,1.399999976158142,-2.581249952316284,1.277500033378601,-0.1570800095796585,-0.050680000334978104,-0.3543400168418884,0.0,0.0,0.0,0.0,0.0,0.0,False,0,3922
0.0,0.0,0.0,0.0,0.0,0.0,0.0,0.0,0.0,-0.0009765625,1.00830078125,0.18408203125,0.0,0.0,0.0,False,0,3923
0.0,0.0,0.0,0.0,0.0,0.0,0.0,0.0,0.0,0.0,0.0,0.0,0.0,0.0,0.0,False,0,3919
-0.9999119639396667,-0.013907999731600285,0.19105198979377747,1.5487500429153442,-2.5899999141693115,0.9887499809265137,-0.16043999791145325,-0.05236000195145607,-0.35965999960899353,0.0,0.0,0.0,0.0,0.0,0.0,False,0,3934
0.0,0.0,0.0,0.0,0.0,0.0,0.0,0.0,0.0,-0.00439453125,1.0107421875,0.193359375,0.0,0.0,0.0,False,0,3940
0.0,0.0,0.0,0.0,0.0,0.0,0.0,0.0,0.0,0.0,0.0,0.0,0.0,0.0,0.0,False,0,3932
-0.9955199956893921,-0.012443999759852886,0.19105198979377747,1.53125,-2.502500057220459,1.2424999475479126,-0.15540000796318054,-0.045500002801418304,-0.36246001720428467,0.0,0.0,0.0,0.0,0.0,0.0,False,0,3951
0.0,0.0,0.0,0.0,0.0,0.0,0.0,0.0,0.0,-0.01708984375,0.98583984375,0.21728515625,0.0,0.0,0.0,False,0,3953
0.0,0.0,0.0,0.0,0.0,0.0,0.0,0.0,0.0,0.0,0.0,0.0,0.0,0.0,0.0,False,0,3944
-1.0006439685821533,-0.01756799966096878,0.19471199810504913,1.4874999523162842,-2.555000066757202,1.2074999809265137,-0.16099999845027924,-0.05152000114321709,-0.3600800037384033,0.0,0.0,0.0,0.0,0.0,0.0,False,0,3962
0.0,0.0,0.0,0.0,0.0,0.0,0.0,0.0,0.0,-0.01025390625,0.98681640625,0.216796875,0.0,0.0,0.0,False,0,3968
0.0,0.0,0.0,0.0,0.0,0.0,0.0,0.0,0.0,0.0,0.0,0.0,0.0,0.0,0.0,False,0,3959
-0.9999119639396667,-0.014639999717473984,0.18299999833106995,1.662500023841858,-2.432500123977661,1.2512500286102295,-0.15820001065731049,-0.05292000249028206,-0.3561600148677826,0.0,0.0,0.0,0.0,0.0,0.0,False,0,3979
0.0,0.0,0.0,0.0,0.0,0.0,0.0,0.0,0.0,0.01513671875,0.9931640625,0.18310546875,0.0,0.0,0.0,False,0,3981
0.0,0.0,0.0,0.0,0.0,0.0,0.0,0.0,0.0,0.0,0.0,0.0,0.0,0.0,0.0,False,0,3972
-0.994055986404419,-0.016103999689221382,0.18885599076747894,1.5049999952316284,-2.309999942779541,1.3825000524520874,-0.16099999845027924,-0.04970000311732292,-0.3560200035572052,0.0,0.0,0.0,0.0,0.0,0.0,False,0,3991
0.0,0.0,0.0,0.0,0.0,0.0,0.0,0.0,0.0,0.00634765625,0.9814453125,0.19677734375,0.0,0.0,0.0,False,0,3992
0.0,0.0,0.0,0.0,0.0,0.0,0.0,0.0,0.0,0.0,0.0,0.0,0.0,0.0,0.0,False,0,3988
-0.9911279678344727,-0.025619998574256897,0.187391996383667,1.496250033378601,-2.4674999713897705,1.3650000095367432,-0.16002000868320465,-0.045500002801418304,-0.3599400222301483,0.0,0.0,0.0,0.0,0.0,0.0,False,0,4003
0.0,0.0,0.0,0.0,0.0,0.0,0.0,0.0,0.0,-0.009765625,0.9755859375,0.2109375,0.0,0.0,0.0,False,0,4009
0.0,0.0,0.0,0.0,0.0,0.0,0.0,0.0,0.0,0.0,0.0,0.0,0.0,0.0,0.0,False,0,4001
-0.9955199956893921,-0.012443999759852886,0.187391996383667,1.5750000476837158,-2.4412500858306885,1.2599999904632568,-0.16646000742912292,-0.05403999984264374,-0.3571400046348572,0.0,0.0,0.0,0.0,0.0,0.0,False,0,4020
0.0,0.0,0.0,0.0,0.0,0.0,0.0,0.0,0.0,0.001953125,0.99951171875,0.19384765625,0.0,0.0,0.0,False,0,4022
0.0,0.0,0.0,0.0,0.0,0.0,0.0,0.0,0.0,0.0,0.0,0.0,0.0,0.0,0.0,False,0,4013
-0.9925919771194458,-0.01756799966096878,0.1815359890460968,1.7675000429153442,-2.8262500762939453,1.2512500286102295,-0.16099999845027924,-0.05194000154733658,-0.3562999963760376,0.0,0.0,0.0,0.0,0.0,0.0,False,0,4031
0.0,0.0,0.0,0.0,0.0,0.0,0.0,0.0,0.0,0.00732421875,0.9990234375,0.193359375,0.0,0.0,0.0,False,0,4037
0.0,0.0,0.0,0.0,0.0,0.0,0.0,0.0,0.0,0.0,0.0,0.0,0.0,0.0,0.0,False,0,4028
-0.9882000088691711,-0.010979999788105488,0.18519599735736847,1.566249966621399,-2.484999895095825,1.3650000095367432,-0.1573600023984909,-0.05348000302910805,-0.3562999963760376,0.0,0.0,0.0,0.0,0.0,0.0,False,0,4048
0.0,0.0,0.0,0.0,0.0,0.0,0.0,0.0,0.0,0.00146484375,0.98681640625,0.203125,0.0,0.0,0.0,False,0,4050
0.0,0.0,0.0,0.0,0.0,0.0,0.0,0.0,0.0,0.0,0.0,0.0,0.0,0.0,0.0,False,0,4041
-0.9852719902992249,-0.016103999689221382,0.187391996383667,1.6712499856948853,-2.2225000858306885,1.2337499856948853,-0.1576400101184845,-0.04830000177025795,-0.36764001846313477,0.0,0.0,0.0,0.0,0.0,0.0,False,0,4059
0.0,0.0,0.0,0.0,0.0,0.0,0.0,0.0,0.0,-0.001953125,0.98046875,0.21728515625,0.0,0.0,0.0,False,0,4066
0.0,0.0,0.0,0.0,0.0,0.0,0.0,0.0,0.0,0.0,0.0,0.0,0.0,0.0,0.0,False,0,4056
-0.9882000088691711,-0.01903199963271618,0.17714399099349976,1.6012500524520874,-2.5199999809265137,1.1637500524520874,-0.16002000868320465,-0.04928000271320343,-0.3652600049972534,0.0,0.0,0.0,0.0,0.0,0.0,False,0,4072
0.0,0.0,0.0,0.0,0.0,0.0,0.0,0.0,0.0,0.001953125,0.99169921875,0.21337890625,0.0,0.0,0.0,False,0,4079
0.0,0.0,0.0,0.0,0.0,0.0,0.0,0.0,0.0,0.0,0.0,0.0,0.0,0.0,0.0,False,0,4070
-0.9977160096168518,-0.018300000578165054,0.18226799368858337,1.2687499523162842,-2.362499952316284,1.2687499523162842,-0.15343999862670898,-0.05180000141263008,-0.36456000804901123,0.0,0.0,0.0,0.0,0.0,0.0,False,0,4089
0.0,0.0,0.0,0.0,0.0,0.0,0.0,0.0,0.0,0.013671875,0.9921875,0.20166015625,0.0,0.0,0.0,False,0,4091
0.0,0.0,0.0,0.0,0.0,0.0,0.0,0.0,0.0,0.0,0.0,0.0,0.0,0.0,0.0,False,0,4082
-0.9977160096168518,-0.013907999731600285,0.1844639927148819,1.6887500286102295,-2.327500104904175,1.3825000524520874,-0.16072000563144684,-0.0509600006043911,-0.3551799952983856,0.0,0.0,0.0,0.0,0.0,0.0,False,0,4100
0.0,0.0,0.0,0.0,0.0,0.0,0.0,0.0,0.0,0.01953125,0.9951171875,0.20068359375,0.0,0.0,0.0,False,0,4106
0.0,0.0,0.0,0.0,0.0,0.0,0.0,0.0,0.0,0.0,0.0,0.0,0.0,0.0,0.0,False,0,4097
-0.9933239817619324,-0.016835998743772507,0.19471199810504913,1.4787499904632568,-2.257499933242798,1.1375000476837158,-0.15904000401496887,-0.05194000154733658,-0.3546200096607208,0.0,0.0,0.0,0.0,0.0,0.0,False,0,4117
0.0,0.0,0.0,0.0,0.0,0.0,0.0,0.0,0.0,0.00732421875,1.00244140625,0.21923828125,0.0,0.0,0.0,False,0,4119
0.0,0.0,0.0,0.0,0.0,0.0,0.0,0.0,0.0,0.0,0.0,0.0,0.0,0.0,0.0,False,0,4110
-0.9889319539070129,-0.012443999759852886,0.18592800199985504,1.4787499904632568,-2.581249952316284,1.1637500524520874,-0.16561999917030334,-0.050119999796152115,-0.3617600202560425,0.0,0.0,0.0,0.0,0.0,0.0,False,0,4128
0.0,0.0,0.0,0.0,0.0,0.0,0.0,0.0,0.0,-0.01611328125,0.986328125,0.22802734375,0.0,0.0,0.0,False,0,4134
0.0,0.0,0.0,0.0,0.0,0.0,0.0,0.0,0.0,0.0,0.0,0.0,0.0,0.0,0.0,False,0,4125
-0.9977160096168518,-0.025619998574256897,0.17933999001979828,1.5399999618530273,-2.598750114440918,1.190000057220459,-0.16660000383853912,-0.04844000190496445,-0.3656800091266632,0.0,0.0,0.0,0.0,0.0,0.0,False,0,4146
0.0,0.0,0.0,0.0,0.0,0.0,0.0,0.0,0.0,0.009765625,0.9990234375,0.1953125,0.0,0.0,0.0,False,0,4148
0.0,0.0,0.0,0.0,0.0,0.0,0.0,0.0,0.0,0.0,0.0,0.0,0.0,0.0,0.0,False,0,4138
-0.9860039949417114,-0.016103999689221382,0.17714399099349976,1.4175000190734863,-2.327500104904175,1.0325000286102295,-0.16058000922203064,-0.054740000516176224,-0.35853999853134155,0.0,0.0,0.0,0.0,0.0,0.0,False,0,4159
0.0,0.0,0.0,0.0,0.0,0.0,0.0,0.0,0.0,-0.00732421875,0.99267578125,0.19189453125,0.0,0.0,0.0,False,0,4160
0.0,0.0,0.0,0.0,0.0,0.0,0.0,0.0,0.0,0.0,0.0,0.0,0.0,0.0,0.0,False,0,4151
-0.9969840049743652,-0.014639999717473984,0.17128799855709076,1.53125,-2.257499933242798,1.3387500047683716,-0.1632400006055832,-0.05320000275969505,-0.35923999547958374,0.0,0.0,0.0,0.0,0.0,0.0,False,0,4169
0.0,0.0,0.0,0.0,0.0,0.0,0.0,0.0,0.0,-0.01318359375,0.99560546875,0.21142578125,0.0,0.0,0.0,False,0,4175
0.0,0.0,0.0,0.0,0.0,0.0,0.0,0.0,0.0,0.0,0.0,0.0,0.0,0.0,0.0,False,0,4166
-0.9918599724769592,-0.016835998743772507,0.17494799196720123,1.496250033378601,-2.6162500381469727,1.3650000095367432,-0.16422000527381897,-0.050680000334978104,-0.35728001594543457,0.0,0.0,0.0,0.0,0.0,0.0,False,0,4186
0.0,0.0,0.0,0.0,0.0,0.0,0.0,0.0,0.0,-0.0146484375,0.99658203125,0.2158203125,0.0,0.0,0.0,False,0,4188
0.0,0.0,0.0,0.0,0.0,0.0,0.0,0.0,0.0,0.0,0.0,0.0,0.0,0.0,0.0,False,0,4179
-0.9969840049743652,-0.021959999576210976,0.19764000177383423,1.5137499570846558,-2.5199999809265137,1.1024999618530273,-0.1678600013256073,-0.05432000011205673,-0.35798001289367676,0.0,0.0,0.0,0.0,0.0,0.0,False,0,4197
0.0,0.0,0.0,0.0,0.0,0.0,0.0,0.0,0.0,0.00244140625,0.98583984375,0.2109375,0.0,0.0,0.0,False,0,4203
0.0,0.0,0.0,0.0,0.0,0.0,0.0,0.0,0.0,0.0,0.0,0.0,0.0,0.0,0.0,False,0,4194
-0.986735999584198,-0.024156000465154648,0.1815359890460968,1.4262499809265137,-2.546250104904175,1.3912500143051147,-0.16505999863147736,-0.05375999957323074,-0.35840001702308655,0.0,0.0,0.0,0.0,0.0,0.0,False,0,4214
0.0,0.0,0.0,0.0,0.0,0.0,0.0,0.0,0.0,-0.00341796875,0.98828125,0.21630859375,0.0,0.0,0.0,False,0,4216
0.0,0.0,0.0,0.0,0.0,0.0,0.0,0.0,0.0,0.0,0.0,0.0,0.0,0.0,0.0,False,0,4207
-0.9969840049743652,-0.021959999576210976,0.18519599735736847,1.6449999809265137,-2.0562500953674316,1.2949999570846558,-0.16449999809265137,-0.054740000516176224,-0.35938000679016113,0.0,0.0,0.0,0.0,0.0,0.0,False,0,4225
0.0,0.0,0.0,0.0,0.0,0.0,0.0,0.0,0.0,-0.01416015625,0.9921875,0.22509765625,0.0,0.0,0.0,False,0,4231
0.0,0.0,0.0,0.0,0.0,0.0,0.0,0.0,0.0,0.0,0.0,0.0,0.0,0.0,0.0,False,0,4222
-0.9911279678344727,-0.02122800052165985,0.18373200297355652,1.715000033378601,-2.3887500762939453,1.2424999475479126,-0.16449999809265137,-0.04522000253200531,-0.35868000984191895,0.0,0.0,0.0,0.0,0.0,0.0,False,0,4242
0.0,0.0,0.0,0.0,0.0,0.0,0.0,0.0,0.0,-0.01416015625,0.9921875,0.22509765625,0.0,0.0,0.0,False,0,4244
0.0,0.0,0.0,0.0,0.0,0.0,0.0,0.0,0.0,0.0,0.0,0.0,0.0,0.0,0.0,False,0,4235
-0.9896639585494995,-0.012443999759852886,0.1925159990787506,1.408750057220459,-2.380000114440918,1.3387500047683716,-0.1629600077867508,-0.0509600006043911,-0.3574199974536896,0.0,0.0,0.0,0.0,0.0,0.0,False,0,4253
0.0,0.0,0.0,0.0,0.0,0.0,0.0,0.0,0.0,-0.005859375,0.98828125,0.220703125,0.0,0.0,0.0,False,0,4259
0.0,0.0,0.0,0.0,0.0,0.0,0.0,0.0,0.0,0.0,0.0,0.0,0.0,0.0,0.0,False,0,4250
-0.9918599724769592,-0.015371999703347683,0.18812400102615356,1.4612499475479126,-2.546250104904175,1.399999976158142,-0.1629600077867508,-0.05250000208616257,-0.3568600118160248,0.0,0.0,0.0,0.0,0.0,0.0,False,0,4270
0.0,0.0,0.0,0.0,0.0,0.0,0.0,0.0,0.0,-0.00732421875,0.98974609375,0.22265625,0.0,0.0,0.0,False,0,4272
0.0,0.0,0.0,0.0,0.0,0.0,0.0,0.0,0.0,0.0,0.0,0.0,0.0,0.0,0.0,False,0,4263
-0.9933239817619324,-0.023423999547958374,0.18958799540996552,1.715000033378601,-2.380000114440918,1.3387500047683716,-0.16604000329971313,-0.0508200004696846,-0.35238000750541687,0.0,0.0,0.0,0.0,0.0,0.0,False,0,4281
0.0,0.0,0.0,0.0,0.0,0.0,0.0,0.0,0.0,-0.013671875,1.0146484375,0.19287109375,0.0,0.0,0.0,False,0,4288
0.0,0.0,0.0,0.0,0.0,0.0,0.0,0.0,0.0,0.0,0.0,0.0,0.0,0.0,0.0,False,0,4278
-0.9991799592971802,-0.023423999547958374,0.17933999001979828,1.6974999904632568,-2.7825000286102295,1.3825000524520874,-0.16688001155853271,-0.05025999993085861,-0.35923999547958374,0.0,0.0,0.0,0.0,0.0,0.0,False,0,4294
0.0,0.0,0.0,0.0,0.0,0.0,0.0,0.0,0.0,-0.01513671875,1.0166015625,0.18408203125,0.0,0.0,0.0,False,0,4301
0.0,0.0,0.0,0.0,0.0,0.0,0.0,0.0,0.0,0.0,0.0,0.0,0.0,0.0,0.0,False,0,4292
-0.994055986404419,-0.019763998687267303,0.18665999174118042,1.3737499713897705,-2.546250104904175,1.4350000619888306,-0.16492000222206116,-0.048020001500844955,-0.35910001397132874,0.0,0.0,0.0,0.0,0.0,0.0,False,0,4311
0.0,0.0,0.0,0.0,0.0,0.0,0.0,0.0,0.0,0.0,1.02099609375,0.20263671875,0.0,0.0,0.0,False,0,4313
0.0,0.0,0.0,0.0,0.0,0.0,0.0,0.0,0.0,0.0,0.0,0.0,0.0,0.0,0.0,False,0,4304
-0.9947879910469055,-0.019763998687267303,0.1844639927148819,1.5837500095367432,-2.458750009536743,1.1725000143051147,-0.1577800065279007,-0.047600001096725464,-0.36274001002311707,0.0,0.0,0.0,0.0,0.0,0.0,False,0,4322
0.0,0.0,0.0,0.0,0.0,0.0,0.0,0.0,0.0,0.00048828125,1.00537109375,0.20068359375,0.0,0.0,0.0,False,0,4328
0.0,0.0,0.0,0.0,0.0,0.0,0.0,0.0,0.0,0.0,0.0,0.0,0.0,0.0,0.0,False,0,4319
-0.9882000088691711,-0.010979999788105488,0.17933999001979828,1.7937500476837158,-2.6424999237060547,1.1200000047683716,-0.1670200079679489,-0.050680000334978104,-0.3599400222301483,0.0,0.0,0.0,0.0,0.0,0.0,False,0,4339
0.0,0.0,0.0,0.0,0.0,0.0,0.0,0.0,0.0,-0.005859375,0.98291015625,0.19091796875,0.0,0.0,0.0,False,0,4341
0.0,0.0,0.0,0.0,0.0,0.0,0.0,0.0,0.0,0.0,0.0,0.0,0.0,0.0,0.0,False,0,4332
-0.9933239817619324,-0.010979999788105488,0.19764000177383423,1.8200000524520874,-2.240000009536743,1.1112500429153442,-0.16688001155853271,-0.04382000118494034,-0.35798001289367676,0.0,0.0,0.0,0.0,0.0,0.0,False,0,4350
0.0,0.0,0.0,0.0,0.0,0.0,0.0,0.0,0.0,0.005859375,0.9951171875,0.1884765625,0.0,0.0,0.0,False,0,4357
0.0,0.0,0.0,0.0,0.0,0.0,0.0,0.0,0.0,0.0,0.0,0.0,0.0,0.0,0.0,False,0,4347
-0.9933239817619324,-0.02122800052165985,0.1815359890460968,1.6712499856948853,-2.2925000190734863,1.2074999809265137,-0.16604000329971313,-0.044940002262592316,-0.3599400222301483,0.0,0.0,0.0,0.0,0.0,0.0,False,0,4363
0.0,0.0,0.0,0.0,0.0,0.0,0.0,0.0,0.0,-0.0068359375,1.00244140625,0.193359375,0.0,0.0,0.0,False,0,4370
0.0,0.0,0.0,0.0,0.0,0.0,0.0,0.0,0.0,0.0,0.0,0.0,0.0,0.0,0.0,False,0,4361
-0.9896639585494995,-0.020495999604463577,0.17494799196720123,1.8287500143051147,-2.327500104904175,1.3387500047683716,-0.16534000635147095,-0.05460000038146973,-0.3599400222301483,0.0,0.0,0.0,0.0,0.0,0.0,False,0,4380
0.0,0.0,0.0,0.0,0.0,0.0,0.0,0.0,0.0,-0.00927734375,0.9951171875,0.19775390625,0.0,0.0,0.0,False,0,4382
0.0,0.0,0.0,0.0,0.0,0.0,0.0,0.0,0.0,0.0,0.0,0.0,0.0,0.0,0.0,False,0,4373
-0.9947879910469055,-0.016103999689221382,0.18519599735736847,1.5487500429153442,-2.484999895095825,1.2599999904632568,-0.16366000473499298,-0.05292000249028206,-0.3606400191783905,0.0,0.0,0.0,0.0,0.0,0.0,False,0,4391
0.0,0.0,0.0,0.0,0.0,0.0,0.0,0.0,0.0,-0.01318359375,0.9912109375,0.2255859375,0.0,0.0,0.0,False,0,4397
0.0,0.0,0.0,0.0,0.0,0.0,0.0,0.0,0.0,0.0,0.0,0.0,0.0,0.0,0.0,False,0,4388
-0.9874680042266846,-0.01903199963271618,0.18812400102615356,1.8287500143051147,-2.598750114440918,1.347499966621399,-0.1628200113773346,-0.056140001863241196,-0.3500000238418579,0.0,0.0,0.0,0.0,0.0,0.0,False,0,4408
0.0,0.0,0.0,0.0,0.0,0.0,0.0,0.0,0.0,-0.00634765625,0.9970703125,0.21728515625,0.0,0.0,0.0,False,0,4410
0.0,0.0,0.0,0.0,0.0,0.0,0.0,0.0,0.0,0.0,0.0,0.0,0.0,0.0,0.0,False,0,4401
-0.9962520003318787,-0.02122800052165985,0.18519599735736847,1.3912500143051147,-2.598750114440918,1.277500033378601,-0.172200009226799,-0.05040000006556511,-0.3508400022983551,0.0,0.0,0.0,0.0,0.0,0.0,False,0,4419
0.0,0.0,0.0,0.0,0.0,0.0,0.0,0.0,0.0,0.01123046875,1.00634765625,0.1845703125,0.0,0.0,0.0,False,0,4425
0.0,0.0,0.0,0.0,0.0,0.0,0.0,0.0,0.0,0.0,0.0,0.0,0.0,0.0,0.0,False,0,4416
-0.9933239817619324,-0.012443999759852886,0.18080399930477142,1.3737499713897705,-2.283750057220459,1.4175000190734863,-0.16646000742912292,-0.05040000006556511,-0.3655399978160858,0.0,0.0,0.0,0.0,0.0,0.0,False,0,4437
0.0,0.0,0.0,0.0,0.0,0.0,0.0,0.0,0.0,0.00634765625,0.99658203125,0.20361328125,0.0,0.0,0.0,False,0,4439
0.0,0.0,0.0,0.0,0.0,0.0,0.0,0.0,0.0,0.0,0.0,0.0,0.0,0.0,0.0,False,0,4429
-0.9903959631919861,-0.007319999858736992,0.19471199810504913,1.6537500619888306,-2.546250104904175,1.1112500429153442,-0.16422000527381897,-0.05530000105500221,-0.3655399978160858,0.0,0.0,0.0,0.0,0.0,0.0,False,0,4450
0.0,0.0,0.0,0.0,0.0,0.0,0.0,0.0,0.0,-0.02001953125,0.99755859375,0.20703125,0.0,0.0,0.0,False,0,4451
0.0,0.0,0.0,0.0,0.0,0.0,0.0,0.0,0.0,0.0,0.0,0.0,0.0,0.0,0.0,False,0,4442
-0.9903959631919861,-0.00878399983048439,0.18958799540996552,1.6100000143051147,-2.6600000858306885,1.3300000429153442,-0.16646000742912292,-0.05222000181674957,-0.3602200150489807,0.0,0.0,0.0,0.0,0.0,0.0,False,0,4460
0.0,0.0,0.0,0.0,0.0,0.0,0.0,0.0,0.0,-0.02685546875,1.005859375,0.20556640625,0.0,0.0,0.0,False,0,4466
0.0,0.0,0.0,0.0,0.0,0.0,0.0,0.0,0.0,0.0,0.0,0.0,0.0,0.0,0.0,False,0,4457
-1.0072319507598877,-0.0226919986307621,0.18885599076747894,1.4700000286102295,-2.5374999046325684,1.2862499952316284,-0.162540003657341,-0.05544000118970871,-0.35784000158309937,0.0,0.0,0.0,0.0,0.0,0.0,False,0,4477
0.0,0.0,0.0,0.0,0.0,0.0,0.0,0.0,0.0,-0.029296875,0.9892578125,0.21630859375,0.0,0.0,0.0,False,0,4479
0.0,0.0,0.0,0.0,0.0,0.0,0.0,0.0,0.0,0.0,0.0,0.0,0.0,0.0,0.0,False,0,4470
-0.9947879910469055,-0.024156000465154648,0.19105198979377747,1.5487500429153442,-2.502500057220459,1.3737499713897705,-0.16114000976085663,-0.047040000557899475,-0.36302000284194946,0.0,0.0,0.0,0.0,0.0,0.0,False,0,4488
0.0,0.0,0.0,0.0,0.0,0.0,0.0,0.0,0.0,-0.0048828125,1.0,0.22119140625,0.0,0.0,0.0,False,0,4494
0.0,0.0,0.0,0.0,0.0,0.0,0.0,0.0,0.0,0.0,0.0,0.0,0.0,0.0,0.0,False,0,4485
-0.9933239817619324,-0.010979999788105488,0.18519599735736847,1.715000033378601,-2.362499952316284,1.277500033378601,-0.16561999917030334,-0.05530000105500221,-0.35350000858306885,0.0,0.0,0.0,0.0,0.0,0.0,False,0,4506
0.0,0.0,0.0,0.0,0.0,0.0,0.0,0.0,0.0,0.0078125,0.994140625,0.2294921875,0.0,0.0,0.0,False,0,4508
0.0,0.0,0.0,0.0,0.0,0.0,0.0,0.0,0.0,0.0,0.0,0.0,0.0,0.0,0.0,False,0,4498
-1.0021079778671265,-0.00951599981635809,0.19178399443626404,1.408750057220459,-2.336250066757202,1.2949999570846558,-0.1580599993467331,-0.05389999970793724,-0.3654000163078308,0.0,0.0,0.0,0.0,0.0,0.0,False,0,4519
0.0,0.0,0.0,0.0,0.0,0.0,0.0,0.0,0.0,0.0029296875,1.0078125,0.22119140625,0.0,0.0,0.0,False,0,4520
0.0,0.0,0.0,0.0,0.0,0.0,0.0,0.0,0.0,0.0,0.0,0.0,0.0,0.0,0.0,False,0,4511
-0.9947879910469055,-0.01756799966096878,0.18665999174118042,1.4874999523162842,-2.6337499618530273,1.3212499618530273,-0.1677200049161911,-0.057680003345012665,-0.35923999547958374,0.0,0.0,0.0,0.0,0.0,0.0,False,0,4529
0.0,0.0,0.0,0.0,0.0,0.0,0.0,0.0,0.0,-0.00390625,0.98779296875,0.21630859375,0.0,0.0,0.0,False,0,4535
0.0,0.0,0.0,0.0,0.0,0.0,0.0,0.0,0.0,0.0,0.0,0.0,0.0,0.0,0.0,False,0,4526
-0.9955199956893921,-0.02781599946320057,0.18592800199985504,1.6974999904632568,-2.5112500190734863,1.3387500047683716,-0.16436000168323517,-0.05152000114321709,-0.3614799976348877,0.0,0.0,0.0,0.0,0.0,0.0,False,0,4546
0.0,0.0,0.0,0.0,0.0,0.0,0.0,0.0,0.0,0.0029296875,0.9912109375,0.21484375,0.0,0.0,0.0,False,0,4548
0.0,0.0,0.0,0.0,0.0,0.0,0.0,0.0,0.0,0.0,0.0,0.0,0.0,0.0,0.0,False,0,4539
-1.0028399229049683,-0.023423999547958374,0.18007199466228485,1.6362500190734863,-2.2925000190734863,1.2862499952316284,-0.16534000635147095,-0.05698000267148018,-0.35756000876426697,0.0,0.0,0.0,0.0,0.0,0.0,False,0,4557
0.0,0.0,0.0,0.0,0.0,0.0,0.0,0.0,0.0,-0.0068359375,0.99560546875,0.19873046875,0.0,0.0,0.0,False,0,4563
0.0,0.0,0.0,0.0,0.0,0.0,0.0,0.0,0.0,0.0,0.0,0.0,0.0,0.0,0.0,False,0,4554
-0.9962520003318787,-0.023423999547958374,0.18519599735736847,1.5487500429153442,-2.432500123977661,1.3387500047683716,-0.16436000168323517,-0.05222000181674957,-0.3603599965572357,0.0,0.0,0.0,0.0,0.0,0.0,False,0,4574
0.0,0.0,0.0,0.0,0.0,0.0,0.0,0.0,0.0,-0.0107421875,0.9853515625,0.19091796875,0.0,0.0,0.0,False,0,4576
0.0,0.0,0.0,0.0,0.0,0.0,0.0,0.0,0.0,0.0,0.0,0.0,0.0,0.0,0.0,False,0,4567
