timestamp_ms,ax,ay,az,gx,gy,gz,mx,my,mz,latitude,longitude,altitude,satellite_count,position_lock,temperature,pressure,barometer_altitude,highg_ax,highg_ay,highg_az,rocket_state0,rocket_state1,rocket_state2,rocket_state3,flap_extension,state_est_x,state_est_vx,state_est_ax,state_est_apo,battery_voltage
1945435,0.014091,-0.025071,1.04365,-1.96875,1.19,-22.1375,0.3759,0.11578,-0.52976,41.4877,-89.5063,181.342,13,1,33.38,1025.95,-112.393,0.09375,0.0957031,1.05469,1,1,1,1,0,-111.919,0.215788,0.0288778,-112.006,8.03408
1945445,0.014091,-0.025071,1.04365,-1.96875,1.19,-22.1375,0.3759,0.11578,-0.52976,41.4877,-89.5063,181.342,13,1,33.38,1025.95,-112.393,0.09375,0.0957031,1.05469,1,1,1,1,0,-111.919,0.215788,0.0288778,-112.006,8.03408
1945455,0.014091,-0.025071,1.04365,-1.96875,1.19,-22.1375,0.3759,0.11578,-0.52976,41.4877,-89.5063,181.342,13,1,33.38,1025.95,-112.393,0.09375,0.0957031,1.05469,1,1,1,1,0,-111.919,0.215788,0.0288778,-112.006,8.03408
1945465,0.02013,-0.02257,1.02614,-1.12,1.1025,-22.1025,0.37548,0.1141,-0.52556,41.4877,-89.5063,181.342,13,1,33.38,1025.94,-112.305,0.0917969,0.09375,1.05469,1,1,1,1,0,-111.919,0.215788,0.0288778,-112.006,8.01475
1945475,0.02013,-0.02257,1.02614,-1.12,1.1025,-22.1025,0.37548,0.1141,-0.52556,41.4877,-89.5063,181.342,13,1,33.38,1025.94,-112.305,0.0917969,0.09375,1.05469,1,1,1,1,0,-111.919,0.215788,0.0288778,-112.006,8.01475
1945485,0.02013,-0.02257,1.02614,-1.12,1.1025,-22.1025,0.37548,0.1141,-0.52556,41.4877,-89.5063,181.342,13,1,33.38,1025.94,-112.305,0.0917969,0.09375,1.05469,1,1,1,1,0,-111.919,0.215788,0.0288778,-112.006,8.01475
1945495,0.012322,-0.019703,1.04218,-4.71625,5.355,-1.75875,0.39424,0.17962,-0.50568,41.4877,-89.5063,181.342,13,1,33.38,1025.93,-112.217,0.0898438,0.0917969,1.05469,1,1,1,1,0,-111.917,0.215725,0.026739,-112.002,8.04375
1945505,0.012322,-0.019703,1.04218,-4.71625,5.355,-1.75875,0.39424,0.17962,-0.50568,41.4877,-89.5063,181.342,13,1,33.38,1025.93,-112.217,0.0898438,0.0917969,1.05469,1,1,1,1,0,-111.917,0.215725,0.026739,-112.002,8.04375
1945515,0.010004,-0.0305,1.03011,-1.365,2.28375,-19.4513,0.38696,0.13734,-0.5327,41.4877,-89.5063,181.342,13,1,33.38,1025.95,-112.393,0.0859375,0.0898438,1.05469,1,1,1,1,0,-111.917,0.215725,0.026739,-112.002,8.04375
1945525,0.010004,-0.0305,1.03011,-1.365,2.28375,-19.4513,0.38696,0.13734,-0.5327,41.4877,-89.5063,181.342,13,1,33.38,1025.95,-112.393,0.0859375,0.0898438,1.05469,1,1,1,1,0,-111.917,0.215725,0.026739,-112.002,8.04375
1945535,0.010004,-0.0305,1.03011,-1.365,2.28375,-19.4513,0.38696,0.13734,-0.5327,41.4877,-89.5063,181.342,13,1,33.38,1025.95,-112.393,0.0859375,0.0898438,1.05469,1,1,1,1,0,-111.917,0.215725,0.026739,-112.002,8.04375
1945545,0.010187,-0.042944,1.032,-2.9225,2.1875,-11.0337,0.36736,0.10948,-0.50666,41.4877,-89.5063,181.347,13,1,33.39,1025.95,-112.396,0.0898438,0.0976562,1.05469,1,1,1,1,0,-111.912,0.21616,0.0265023,-112,8.00508
1945555,0.010187,-0.042944,1.032,-2.9225,2.1875,-11.0337,0.36736,0.10948,-0.50666,41.4877,-89.5063,181.347,13,1,33.39,1025.95,-112.396,0.0898438,0.0976562,1.05469,1,1,1,1,0,-111.912,0.21616,0.0265023,-112,8.00508
1945565,0.008052,-0.030561,1.02901,-3.84125,5.80125,-13.4488,0.39592,0.10766,-0.50652,41.4877,-89.5063,181.347,13,1,33.39,1025.93,-112.221,0.0898438,0.0976562,1.05469,1,1,1,1,0,-111.912,0.21616,0.0265023,-112,8.00508
1945575,0.008052,-0.030561,1.02901,-3.84125,5.80125,-13.4488,0.39592,0.10766,-0.50652,41.4877,-89.5063,181.347,13,1,33.39,1025.93,-112.221,0.09375,0.101562,1.05469,1,1,1,1,0,-111.912,0.21616,0.0265023,-112,8.03408
1945585,0.008052,-0.030561,1.02901,-3.84125,5.80125,-13.4488,0.39592,0.10766,-0.50652,41.4877,-89.5063,181.347,13,1,33.39,1025.93,-112.221,0.09375,0.101562,1.05469,1,1,1,1,0,-111.912,0.21616,0.0265023,-112,8.03408
1945595,0.014701,-0.028975,1.04524,-3.85875,-0.63875,-0.3675,0.36848,0.10528,-0.5544,41.4877,-89.5063,181.347,13,1,33.39,1025.96,-112.484,0.09375,0.101562,1.05273,1,1,1,1,0,-111.91,0.215557,0.00949148,-111.994,8.01475
1945605,0.014701,-0.028975,1.04524,-3.85875,-0.63875,-0.3675,0.36848,0.10528,-0.5544,41.4877,-89.5063,181.347,13,1,33.39,1025.96,-112.484,0.09375,0.101562,1.05273,1,1,1,1,0,-111.91,0.215557,0.00949148,-111.994,8.01475
1945615,0.014701,-0.028975,1.04524,-3.85875,-0.63875,-0.3675,0.36848,0.10528,-0.5544,41.4877,-89.5063,181.347,13,1,33.39,1025.96,-112.484,0.09375,0.101562,1.05273,1,1,1,1,0,-111.91,0.215557,0.00949148,-111.994,8.01475
1945625,0.000427,-0.012627,1.03236,-3.31625,1.68,-8.575,0.36218,0.10808,-0.51408,41.4877,-89.5063,181.347,13,1,33.39,1025.95,-112.396,0.0878906,0.0976562,1.05273,1,1,1,1,0,-111.91,0.215557,0.00949148,-111.994,8.04375
1945635,0.000427,-0.012627,1.03236,-3.31625,1.68,-8.575,0.36218,0.10808,-0.51408,41.4877,-89.5063,181.347,13,1,33.39,1025.95,-112.396,0.0878906,0.0976562,1.05273,1,1,1,1,0,-111.91,0.215557,0.00949148,-111.994,8.04375
1945645,0.003599,-0.028853,1.04084,-3.57875,2.14375,-6.9825,0.39914,0.19068,-0.56308,41.4877,-89.5063,181.347,13,1,33.39,1025.95,-112.396,0.0859375,0.109375,1.05469,1,1,1,1,0,-111.904,0.215423,0.0248211,-111.993,8.03408
1945655,0.003599,-0.028853,1.04084,-3.57875,2.14375,-6.9825,0.39914,0.19068,-0.56308,41.4877,-89.5063,181.347,13,1,33.39,1025.95,-112.396,0.0859375,0.109375,1.05469,1,1,1,1,0,-111.904,0.215423,0.0248211,-111.993,8.03408
1945665,0.003599,-0.028853,1.04084,-3.57875,2.14375,-6.9825,0.39914,0.19068,-0.56308,41.4877,-89.5063,181.347,13,1,33.39,1025.95,-112.396,0.0859375,0.109375,1.05469,1,1,1,1,0,-111.904,0.215423,0.0248211,-111.993,8.03408
1945675,0.007625,-0.018971,1.03529,-3.77125,1.98625,-5.5475,0.3724,0.112,-0.54236,41.4877,-89.5063,181.347,13,1,33.37,1025.94,-112.301,0.0859375,0.109375,1.05469,1,1,1,1,0,-111.904,0.215423,0.0248211,-111.993,8.03408
1945685,0.007625,-0.018971,1.03529,-3.77125,1.98625,-5.5475,0.3724,0.112,-0.54236,41.4877,-89.5063,181.347,13,1,33.37,1025.94,-112.301,0.0859375,0.109375,1.05469,1,1,1,1,0,-111.904,0.215423,0.0248211,-111.993,8.03408
1945695,0.007625,-0.018971,1.03529,-3.77125,1.98625,-5.5475,0.3724,0.112,-0.54236,41.4877,-89.5063,181.347,13,1,33.37,1025.94,-112.301,0.0839844,0.113281,1.05469,1,1,1,1,0,-111.904,0.215423,0.0248211,-111.993,8.03408
1945705,0.007625,-0.018971,1.03529,-3.77125,1.98625,-5.5475,0.3724,0.112,-0.54236,41.4877,-89.5063,181.347,13,1,33.37,1025.94,-112.301,0.0839844,0.113281,1.05469,1,1,1,1,0,-111.904,0.215423,0.0248211,-111.993,8.03408
1945715,-0.114314,-0.041297,1.03133,-5.53875,2.1,1.72375,0.38822,0.12292,-0.53424,41.4877,-89.5063,181.347,13,1,33.37,1025.96,-112.477,0.0839844,0.113281,1.05664,1,1,1,1,0,-111.904,0.216057,0.0602339,-111.986,6.88359
1945725,-0.114314,-0.041297,1.03133,-5.53875,2.1,1.72375,0.38822,0.12292,-0.53424,41.4877,-89.5063,181.347,13,1,33.37,1025.96,-112.477,0.0839844,0.113281,1.05664,1,1,1,1,0,-111.904,0.216057,0.0602339,-111.986,6.88359
1945735,0.232532,-0.013542,1.05835,-3.52625,6.3525,-13.44,0.40572,0.19194,-0.53368,41.4877,-89.5063,181.335,13,1,33.38,1025.96,-112.48,0.0898438,0.119141,1.05859,1,1,1,1,0,-111.904,0.216057,0.0602339,-111.986,7.89873
1945745,0.232532,-0.013542,1.05835,-3.52625,6.3525,-13.44,0.40572,0.19194,-0.53368,41.4877,-89.5063,181.335,13,1,33.38,1025.96,-112.48,0.0898438,0.119141,1.05859,1,1,1,1,0,-111.904,0.216057,0.0602339,-111.986,7.89873
1945755,0.232532,-0.013542,1.05835,-3.52625,6.3525,-13.44,0.40572,0.19194,-0.53368,41.4877,-89.5063,181.335,13,1,33.38,1025.96,-112.48,0.0898438,0.119141,1.05859,1,1,1,1,0,-111.904,0.216057,0.0602339,-111.986,7.89873
1945765,-0.0244,-0.016043,1.04292,-1.47,-0.5775,-16.6163,0.3731,0.11424,-0.5348,41.4877,-89.5063,181.335,13,1,33.38,1025.96,-112.48,0.0917969,0.115234,1.06055,1,1,1,1,0,-111.9,0.216966,0.0303143,-111.986,8.03408
1945775,-0.0244,-0.016043,1.04292,-1.47,-0.5775,-16.6163,0.3731,0.11424,-0.5348,41.4877,-89.5063,181.335,13,1,33.38,1025.96,-112.48,0.0917969,0.115234,1.06055,1,1,1,1,0,-111.9,0.216966,0.0303143,-111.986,8.03408
1945785,-0.0244,-0.016043,1.04292,-1.47,-0.5775,-16.6163,0.3731,0.11424,-0.5348,41.4877,-89.5063,181.335,13,1,33.38,1025.96,-112.48,0.0917969,0.115234,1.06055,1,1,1,1,0,-111.9,0.216966,0.0303143,-111.986,8.03408
1945795,-0.027389,-0.008723,1.04426,-4.78625,4.165,-5.06625,0.37898,0.1127,-0.54236,41.4877,-89.5063,181.335,13,1,33.38,1025.94,-112.305,0.0839844,0.115234,1.05469,1,1,1,1,0,-111.9,0.216966,0.0303143,-111.986,8.03408
1945805,-0.027389,-0.008723,1.04426,-4.78625,4.165,-5.06625,0.37898,0.1127,-0.54236,41.4877,-89.5063,181.335,13,1,33.38,1025.94,-112.305,0.0839844,0.115234,1.05469,1,1,1,1,0,-111.9,0.216966,0.0303143,-111.986,8.03408
1945815,-0.02928,-0.009882,1.0431,-4.9,7.77,-4.94375,0.40278,0.18662,-0.53214,41.4877,-89.5063,181.335,13,1,33.38,1025.98,-112.654,0.0820312,0.117188,1.05273,1,1,1,1,0,-111.901,0.21642,0.0268953,-111.982,8.07275
1945825,-0.02928,-0.009882,1.0431,-4.9,7.77,-4.94375,0.40278,0.18662,-0.53214,41.4877,-89.5063,181.335,13,1,33.38,1025.98,-112.654,0.0820312,0.117188,1.05273,1,1,1,1,0,-111.901,0.21642,0.0268953,-111.982,8.07275
1945835,-0.02928,-0.009882,1.0431,-4.9,7.77,-4.94375,0.40278,0.18662,-0.53214,41.4877,-89.5063,181.335,13,1,33.38,1025.98,-112.654,0.0820312,0.117188,1.05273,1,1,1,1,0,-111.901,0.21642,0.0268953,-111.982,8.07275
1945845,-0.065819,-0.015067,1.03706,-5.38125,4.24375,4.3925,0.37184,0.11508,-0.51254,41.4877,-89.5063,181.335,13,1,33.38,1025.97,-112.567,0.0820312,0.125,1.05469,1,1,1,1,0,-111.901,0.21642,0.0268953,-111.982,8.02441
1945855,-0.065819,-0.015067,1.03706,-5.38125,4.24375,4.3925,0.37184,0.11508,-0.51254,41.4877,-89.5063,181.335,13,1,33.38,1025.97,-112.567,0.0820312,0.125,1.05469,1,1,1,1,0,-111.901,0.21642,0.0268953,-111.982,8.02441
1945865,-0.388265,-0.065514,1.03194,-5.11,2.52875,0.55125,0.39256,0.14028,-0.52962,41.4877,-89.5063,181.335,13,1,33.38,1025.97,-112.567,0.0820312,0.125,1.05469,1,1,1,1,0,-111.901,0.21642,0.0268953,-111.982,8.07275
1945875,-0.388265,-0.065514,1.03194,-5.11,2.52875,0.55125,0.39256,0.14028,-0.52962,41.4877,-89.5063,181.335,13,1,33.38,1025.97,-112.567,0.0859375,0.125,1.05469,1,1,1,1,0,-111.904,0.217295,0.0774332,-111.984,8.07275
1945885,-0.388265,-0.065514,1.03194,-5.11,2.52875,0.55125,0.39256,0.14028,-0.52962,41.4877,-89.5063,181.335,13,1,33.38,1025.97,-112.567,0.0859375,0.125,1.05469,1,1,1,1,0,-111.904,0.217295,0.0774332,-111.984,8.07275
1945895,0.21167,-0.010675,1.03633,-4.4275,0.98875,-2.135,0.39606,0.20104,-0.511,41.4877,-89.5063,181.335,13,1,33.39,1025.98,-112.658,0.0859375,0.121094,1.06055,1,1,1,1,0,-111.904,0.217295,0.0774332,-111.984,8.04375
1945905,0.21167,-0.010675,1.03633,-4.4275,0.98875,-2.135,0.39606,0.20104,-0.511,41.4877,-89.5063,181.335,13,1,33.39,1025.98,-112.658,0.0859375,0.121094,1.06055,1,1,1,1,0,-111.904,0.217295,0.0774332,-111.984,8.04375
1945915,0.21167,-0.010675,1.03633,-4.4275,0.98875,-2.135,0.39606,0.20104,-0.511,41.4877,-89.5063,181.335,13,1,33.39,1025.98,-112.658,0.0859375,0.121094,1.06055,1,1,1,1,0,-111.904,0.217295,0.0774332,-111.984,8.04375
1945925,-0.035258,-0.024461,1.0284,-4.15625,2.38875,-3.115,0.39942,0.1022,-0.50246,41.4877,-89.5063,181.335,13,1,33.39,1025.97,-112.57,0.0878906,0.125,1.06445,1,1,1,1,0,-111.903,0.218372,0.031941,-111.986,8.04375
1945935,-0.035258,-0.024461,1.0284,-4.15625,2.38875,-3.115,0.39942,0.1022,-0.50246,41.4877,-89.5063,181.335,13,1,33.39,1025.97,-112.57,0.0878906,0.125,1.06445,1,1,1,1,0,-111.903,0.218372,0.031941,-111.986,8.04375
1945945,-0.006283,-0.021777,1.02846,-3.675,-2.275,-2.59,0.39746,0.10696,-0.50582,41.4877,-89.5063,181.345,13,1,33.39,1025.96,-112.484,0.0917969,0.125,1.05469,1,1,1,1,0,-111.903,0.218372,0.031941,-111.986,8.03408
1945955,-0.006283,-0.021777,1.02846,-3.675,-2.275,-2.59,0.39746,0.10696,-0.50582,41.4877,-89.5063,181.345,13,1,33.39,1025.96,-112.484,0.0917969,0.125,1.05469,1,1,1,1,0,-111.903,0.218372,0.031941,-111.986,8.03408
1945965,-0.006283,-0.021777,1.02846,-3.675,-2.275,-2.59,0.39746,0.10696,-0.50582,41.4877,-89.5063,181.345,13,1,33.39,1025.96,-112.484,0.0917969,0.125,1.05469,1,1,1,1,0,-111.903,0.218372,0.031941,-111.986,8.03408
1945975,0.013908,-0.025681,1.04401,-4.8825,1.86375,7.0525,0.39704,0.10094,-0.51954,41.4877,-89.5063,181.345,13,1,33.39,1025.97,-112.57,0.0839844,0.125,1.05469,1,1,1,1,0,-111.905,0.219054,0.0609235,-111.985,8.01475
1945985,0.013908,-0.025681,1.04401,-4.8825,1.86375,7.0525,0.39704,0.10094,-0.51954,41.4877,-89.5063,181.345,13,1,33.39,1025.97,-112.57,0.0839844,0.125,1.05469,1,1,1,1,0,-111.905,0.219054,0.0609235,-111.985,8.01475
1945995,0.013908,-0.025681,1.04401,-4.8825,1.86375,7.0525,0.39704,0.10094,-0.51954,41.4877,-89.5063,181.345,13,1,33.39,1025.97,-112.57,0.0839844,0.125,1.05469,1,1,1,1,0,-111.905,0.219054,0.0609235,-111.985,8.01475
1946005,-0.033672,-0.019581,1.04017,-4.34875,3.64875,-0.0875,0.36386,0.10752,-0.56042,41.4877,-89.5063,181.345,13,1,33.39,1025.97,-112.57,0.078125,0.125,1.05859,1,1,1,1,0,-111.905,0.219054,0.0609235,-111.985,8.04375
1946015,-0.033672,-0.019581,1.04017,-4.34875,3.64875,-0.0875,0.36386,0.10752,-0.56042,41.4877,-89.5063,181.345,13,1,33.39,1025.97,-112.57,0.078125,0.125,1.05859,1,1,1,1,0,-111.905,0.219054,0.0609235,-111.985,8.04375
1946025,-0.393755,-0.036295,1.05713,-4.62875,6.58875,-3.47375,0.39214,0.10598,-0.51716,41.4877,-89.5063,181.345,13,1,33.39,1025.95,-112.396,0.0859375,0.125,1.0625,1,1,1,1,0,-111.901,0.222011,0.0817861,-111.986,8.03408
1946035,-0.393755,-0.036295,1.05713,-4.62875,6.58875,-3.47375,0.39214,0.10598,-0.51716,41.4877,-89.5063,181.345,13,1,33.39,1025.95,-112.396,0.0859375,0.125,1.0625,1,1,1,1,0,-111.901,0.222011,0.0817861,-111.986,8.03408
1946045,-0.393755,-0.036295,1.05713,-4.62875,6.58875,-3.47375,0.39214,0.10598,-0.51716,41.4877,-89.5063,181.345,13,1,33.39,1025.95,-112.396,0.0859375,0.125,1.0625,1,1,1,1,0,-111.901,0.222011,0.0817861,-111.986,8.03408
1946055,-0.021899,-0.021899,1.0478,-5.565,5.36375,-0.70875,0.3962,0.17752,-0.56798,41.4877,-89.5063,181.345,13,1,33.39,1025.96,-112.484,0.0898438,0.123047,1.06055,1,1,1,1,0,-111.901,0.222011,0.0817861,-111.986,8.02441
1946065,-0.021899,-0.021899,1.0478,-5.565,5.36375,-0.70875,0.3962,0.17752,-0.56798,41.4877,-89.5063,181.345,13,1,33.39,1025.96,-112.484,0.0898438,0.123047,1.06055,1,1,1,1,0,-111.901,0.222011,0.0817861,-111.986,8.02441
1946075,0.009516,-0.0244,1.03139,-0.16625,-0.65625,-22.2775,0.4088,0.10906,-0.51926,41.4877,-89.5063,181.345,13,1,33.37,1025.98,-112.651,0.0898438,0.123047,1.06055,1,1,1,1,0,-111.901,0.222011,0.0817861,-111.986,8.06309
1946085,0.009516,-0.0244,1.03139,-0.16625,-0.65625,-22.2775,0.4088,0.10906,-0.51926,41.4877,-89.5063,181.345,13,1,33.37,1025.98,-112.651,0.0898438,0.123047,1.06055,1,1,1,1,0,-111.901,0.222011,0.0817861,-111.986,8.06309
1946095,0.009516,-0.0244,1.03139,-0.16625,-0.65625,-22.2775,0.4088,0.10906,-0.51926,41.4877,-89.5063,181.345,13,1,33.37,1025.98,-112.651,0.0898438,0.125,1.05859,1,1,1,1,0,-111.904,0.221517,0.0160166,-111.981,8.06309
1946105,0.009516,-0.0244,1.03139,-0.16625,-0.65625,-22.2775,0.4088,0.10906,-0.51926,41.4877,-89.5063,181.345,13,1,33.37,1025.98,-112.651,0.0898438,0.125,1.05859,1,1,1,1,0,-111.904,0.221517,0.0160166,-111.981,8.06309
1946115,0.034831,-0.01891,1.03779,-1.2775,0.74375,-24.8237,0.40964,0.19096,-0.53564,41.4877,-89.5063,181.345,13,1,33.37,1025.98,-112.651,0.0820312,0.109375,1.05273,1,1,1,1,0,-111.904,0.221517,0.0160166,-111.981,8.07275
1946125,0.034831,-0.01891,1.03779,-1.2775,0.74375,-24.8237,0.40964,0.19096,-0.53564,41.4877,-89.5063,181.345,13,1,33.37,1025.98,-112.651,0.0820312,0.109375,1.05273,1,1,1,1,0,-111.904,0.221517,0.0160166,-111.981,8.07275
1946135,0.034831,-0.01891,1.03779,-1.2775,0.74375,-24.8237,0.40964,0.19096,-0.53564,41.4877,-89.5063,181.345,13,1,33.37,1025.98,-112.651,0.0820312,0.109375,1.05273,1,1,1,1,0,-111.904,0.221517,0.0160166,-111.981,8.07275
1946145,0.029158,-0.005124,1.03706,-4.64625,3.38625,-0.13125,0.40516,0.18494,-0.53214,41.4877,-89.5063,181.351,13,1,33.37,1025.96,-112.477,0.0820312,0.107422,1.05469,1,1,1,1,0,-111.905,0.220548,0.0252303,-111.984,8.05342
1946155,0.029158,-0.005124,1.03706,-4.64625,3.38625,-0.13125,0.40516,0.18494,-0.53214,41.4877,-89.5063,181.351,13,1,33.37,1025.96,-112.477,0.0820312,0.107422,1.05469,1,1,1,1,0,-111.905,0.220548,0.0252303,-111.984,8.05342
1946165,0.004148,-0.015677,1.03389,-2.905,1.645,-11.7425,0.37828,0.1071,-0.54516,41.4877,-89.5063,181.351,13,1,33.38,1025.97,-112.567,0.0839844,0.105469,1.05469,1,1,1,1,0,-111.905,0.220548,0.0252303,-111.984,8.06309
1946175,0.004148,-0.015677,1.03389,-2.905,1.645,-11.7425,0.37828,0.1071,-0.54516,41.4877,-89.5063,181.351,13,1,33.38,1025.97,-112.567,0.0839844,0.105469,1.05469,1,1,1,1,0,-111.905,0.220548,0.0252303,-111.984,8.06309
1946185,0.004148,-0.015677,1.03389,-2.905,1.645,-11.7425,0.37828,0.1071,-0.54516,41.4877,-89.5063,181.351,13,1,33.38,1025.97,-112.567,0.0839844,0.105469,1.05469,1,1,1,1,0,-111.905,0.220548,0.0252303,-111.984,8.06309
1946195,0.019703,-0.0122,1.03194,-3.92875,2.70375,-3.6575,0.40754,0.17766,-0.52906,41.4877,-89.5063,181.351,13,1,33.38,1025.97,-112.567,0.0859375,0.113281,1.05273,1,1,1,1,0,-111.904,0.220711,0.0432612,-111.986,8.06309
1946205,0.019703,-0.0122,1.03194,-3.92875,2.70375,-3.6575,0.40754,0.17766,-0.52906,41.4877,-89.5063,181.351,13,1,33.38,1025.97,-112.567,0.0859375,0.113281,1.05273,1,1,1,1,0,-111.904,0.220711,0.0432612,-111.986,8.06309
1946215,0.019703,-0.0122,1.03194,-3.92875,2.70375,-3.6575,0.40754,0.17766,-0.52906,41.4877,-89.5063,181.351,13,1,33.38,1025.97,-112.567,0.0859375,0.113281,1.05273,1,1,1,1,0,-111.904,0.220711,0.0432612,-111.986,8.06309
1946225,-0.006222,-0.010492,1.03548,-3.6575,2.1,-5.0925,0.4074,0.18158,-0.5243,41.4877,-89.5063,181.351,13,1,33.38,1025.96,-112.48,0.0839844,0.113281,1.05664,1,1,1,1,0,-111.904,0.220711,0.0432612,-111.986,7.01895
1946235,-0.006222,-0.010492,1.03548,-3.6575,2.1,-5.0925,0.4074,0.18158,-0.5243,41.4877,-89.5063,181.351,13,1,33.38,1025.96,-112.48,0.0839844,0.113281,1.05664,1,1,1,1,0,-111.904,0.220711,0.0432612,-111.986,7.01895
1946245,0.030622,-0.017873,1.03285,-3.7975,2.1,-6.02875,0.37142,0.10794,-0.52598,41.4877,-89.5063,181.351,13,1,33.38,1025.98,-112.654,0.0859375,0.109375,1.05664,1,1,1,1,0,-111.905,0.219446,-0.00558164,-111.985,7.50234
1946255,0.030622,-0.017873,1.03285,-3.7975,2.1,-6.02875,0.37142,0.10794,-0.52598,41.4877,-89.5063,181.351,13,1,33.38,1025.98,-112.654,0.0859375,0.109375,1.05664,1,1,1,1,0,-111.905,0.219446,-0.00558164,-111.985,7.50234
1946265,0.030622,-0.017873,1.03285,-3.7975,2.1,-6.02875,0.37142,0.10794,-0.52598,41.4877,-89.5063,181.351,13,1,33.38,1025.98,-112.654,0.0859375,0.109375,1.05664,1,1,1,1,0,-111.905,0.219446,-0.00558164,-111.985,7.50234
1946275,-0.007442,-0.010309,1.037,-4.41875,3.28125,1.40875,0.378,0.11746,-0.52388,41.4877,-89.5063,181.351,13,1,33.38,1025.97,-112.567,0.0898438,0.0996094,1.05078,1,1,1,1,0,-111.905,0.219446,-0.00558164,-111.985,8.00508
1946285,-0.007442,-0.010309,1.037,-4.41875,3.28125,1.40875,0.378,0.11746,-0.52388,41.4877,-89.5063,181.351,13,1,33.38,1025.97,-112.567,0.0898438,0.0996094,1.05078,1,1,1,1,0,-111.905,0.219446,-0.00558164,-111.985,8.00508
1946295,-0.008052,-0.008723,1.04048,-2.31875,2.24875,-17.4125,0.39382,0.16002,-0.52248,41.4877,-89.5063,181.351,13,1,33.38,1025.96,-112.48,0.0898438,0.0996094,1.05078,1,1,1,1,0,-111.905,0.219446,-0.00558164,-111.985,8.00508
1946305,-0.008052,-0.008723,1.04048,-2.31875,2.24875,-17.4125,0.39382,0.16002,-0.52248,41.4877,-89.5063,181.351,13,1,33.38,1025.96,-112.48,0.09375,0.0996094,1.04688,1,1,1,1,0,-111.901,0.217247,-0.0281157,-111.987,8.01475
1946315,-0.008052,-0.008723,1.04048,-2.31875,2.24875,-17.4125,0.39382,0.16002,-0.52248,41.4877,-89.5063,181.351,13,1,33.38,1025.96,-112.48,0.09375,0.0996094,1.04688,1,1,1,1,0,-111.901,0.217247,-0.0281157,-111.987,8.01475
1946325,-0.00183,-0.007747,1.02913,-4.8825,-0.35,3.00125,0.3934,0.10066,-0.49602,41.4877,-89.5063,181.351,13,1,33.39,1025.94,-112.309,0.0878906,0.107422,1.04883,1,1,1,1,0,-111.901,0.217247,-0.0281157,-111.987,8.05342
1946335,-0.00183,-0.007747,1.02913,-4.8825,-0.35,3.00125,0.3934,0.10066,-0.49602,41.4877,-89.5063,181.351,13,1,33.39,1025.94,-112.309,0.0878906,0.107422,1.04883,1,1,1,1,0,-111.901,0.217247,-0.0281157,-111.987,8.05342
1946345,-0.00183,-0.007747,1.02913,-4.8825,-0.35,3.00125,0.3934,0.10066,-0.49602,41.4877,-89.5063,181.351,13,1,33.39,1025.94,-112.309,0.0878906,0.107422,1.04883,1,1,1,1,0,-111.901,0.217247,-0.0281157,-111.987,8.05342
1946355,0.010004,-0.015494,1.04005,-2.00375,-1.47,-10.4913,0.36358,0.10542,-0.56378,41.4877,-89.5063,181.343,13,1,33.39,1025.97,-112.57,0.0839844,0.0996094,1.05469,1,1,1,1,0,-111.904,0.214772,0.00319703,-111.983,8.01475
1946365,0.010004,-0.015494,1.04005,-2.00375,-1.47,-10.4913,0.36358,0.10542,-0.56378,41.4877,-89.5063,181.343,13,1,33.39,1025.97,-112.57,0.0839844,0.0996094,1.05469,1,1,1,1,0,-111.904,0.214772,0.00319703,-111.983,8.01475
1946375,0.004636,-0.014823,1.04365,-7.25375,2.87875,5.3375,0.3976,0.15064,-0.56196,41.4877,-89.5063,181.343,13,1,33.39,1025.98,-112.658,0.0820312,0.0917969,1.05273,1,1,1,1,0,-111.904,0.214772,0.00319703,-111.983,8.05342
1946385,0.004636,-0.014823,1.04365,-7.25375,2.87875,5.3375,0.3976,0.15064,-0.56196,41.4877,-89.5063,181.343,13,1,33.39,1025.98,-112.658,0.0820312,0.0917969,1.05273,1,1,1,1,0,-111.904,0.214772,0.00319703,-111.983,8.05342
1946395,0.004636,-0.014823,1.04365,-7.25375,2.87875,5.3375,0.3976,0.15064,-0.56196,41.4877,-89.5063,181.343,13,1,33.39,1025.98,-112.658,0.0820312,0.0917969,1.05273,1,1,1,1,0,-111.904,0.214772,0.00319703,-111.983,8.05342
1946405,0.003172,-0.022814,1.04005,-3.40375,5.78375,-7.245,0.39466,0.09674,-0.5145,41.4877,-89.5063,181.343,13,1,33.39,1025.96,-112.484,0.0898438,0.0898438,1.05078,1,1,1,1,0,-111.905,0.21332,0.0068286,-111.987,8.01475
1946415,0.003172,-0.022814,1.04005,-3.40375,5.78375,-7.245,0.39466,0.09674,-0.5145,41.4877,-89.5063,181.343,13,1,33.39,1025.96,-112.484,0.0898438,0.0898438,1.05078,1,1,1,1,0,-111.905,0.21332,0.0068286,-111.987,8.01475
1946425,-0.004514,-0.015006,1.04505,-2.47625,1.68,-9.275,0.39312,0.1043,-0.51548,41.4877,-89.5063,181.343,13,1,33.39,1025.97,-112.57,0.0898438,0.0898438,1.05078,1,1,1,1,0,-111.905,0.21332,0.0068286,-111.987,8.01475
1946435,-0.004514,-0.015006,1.04505,-2.47625,1.68,-9.275,0.39312,0.1043,-0.51548,41.4877,-89.5063,181.343,13,1,33.39,1025.97,-112.57,0.0917969,0.09375,1.05273,1,1,1,1,0,-111.905,0.21332,0.0068286,-111.987,8.05342
1946445,-0.004514,-0.015006,1.04505,-2.47625,1.68,-9.275,0.39312,0.1043,-0.51548,41.4877,-89.5063,181.343,13,1,33.39,1025.97,-112.57,0.0917969,0.09375,1.05273,1,1,1,1,0,-111.905,0.21332,0.0068286,-111.987,8.05342
1946455,0.010187,-0.014701,1.0367,-3.28125,1.3825,-6.7025,0.39704,0.10038,-0.50904,41.4877,-89.5063,181.343,13,1,33.39,1025.97,-112.57,0.0859375,0.0996094,1.05469,1,1,1,1,0,-111.902,0.212697,0.0245548,-111.988,8.04375
1946465,0.010187,-0.014701,1.0367,-3.28125,1.3825,-6.7025,0.39704,0.10038,-0.50904,41.4877,-89.5063,181.343,13,1,33.39,1025.97,-112.57,0.0859375,0.0996094,1.05469,1,1,1,1,0,-111.902,0.212697,0.0245548,-111.988,8.04375
1946475,0.010187,-0.014701,1.0367,-3.28125,1.3825,-6.7025,0.39704,0.10038,-0.50904,41.4877,-89.5063,181.343,13,1,33.39,1025.97,-112.57,0.0859375,0.0996094,1.05469,1,1,1,1,0,-111.902,0.212697,0.0245548,-111.988,8.04375
1946485,-0.011102,-0.025803,1.02754,-3.71875,1.84625,-5.5825,0.40292,0.10836,-0.51212,41.4877,-89.5063,181.343,13,1,33.37,1025.96,-112.477,0.0859375,0.0996094,1.05469,1,1,1,1,0,-111.902,0.212697,0.0245548,-111.988,8.05342
1946495,-0.011102,-0.025803,1.02754,-3.71875,1.84625,-5.5825,0.40292,0.10836,-0.51212,41.4877,-89.5063,181.343,13,1,33.37,1025.96,-112.477,0.0859375,0.0996094,1.05469,1,1,1,1,0,-111.902,0.212697,0.0245548,-111.988,8.05342
1946505,-0.011102,-0.025803,1.02754,-3.71875,1.84625,-5.5825,0.40292,0.10836,-0.51212,41.4877,-89.5063,181.343,13,1,33.37,1025.96,-112.477,0.0859375,0.101562,1.05664,1,1,1,1,0,-111.902,0.212697,0.0245548,-111.988,8.05342
1946515,-0.011102,-0.025803,1.02754,-3.71875,1.84625,-5.5825,0.40292,0.10836,-0.51212,41.4877,-89.5063,181.343,13,1,33.37,1025.96,-112.477,0.0859375,0.101562,1.05664,1,1,1,1,0,-111.902,0.212697,0.0245548,-111.988,8.05342
1946525,-0.391498,-0.041236,1.05786,-3.605,1.8725,-5.43375,0.40712,0.18648,-0.5334,41.4877,-89.5063,181.343,13,1,33.37,1025.96,-112.477,0.0859375,0.0976562,1.05469,1,1,1,1,0,-111.905,0.212418,0.0432153,-111.985,8.06309
1946535,-0.391498,-0.041236,1.05786,-3.605,1.8725,-5.43375,0.40712,0.18648,-0.5334,41.4877,-89.5063,181.343,13,1,33.37,1025.96,-112.477,0.0859375,0.0976562,1.05469,1,1,1,1,0,-111.905,0.212418,0.0432153,-111.985,8.06309
1946545,0.016348,-0.036661,1.01949,-5.15375,2.87875,6.055,0.406,0.18186,-0.5292,41.4877,-89.5063,181.308,13,1,33.38,1025.98,-112.654,0.0898438,0.0976562,1.05664,1,1,1,1,0,-111.905,0.212418,0.0432153,-111.985,8.05342
1946555,0.016348,-0.036661,1.01949,-5.15375,2.87875,6.055,0.406,0.18186,-0.5292,41.4877,-89.5063,181.308,13,1,33.38,1025.98,-112.654,0.0898438,0.0976562,1.05664,1,1,1,1,0,-111.905,0.212418,0.0432153,-111.985,8.05342
1946565,0.016348,-0.036661,1.01949,-5.15375,2.87875,6.055,0.406,0.18186,-0.5292,41.4877,-89.5063,181.308,13,1,33.38,1025.98,-112.654,0.0898438,0.0976562,1.05664,1,1,1,1,0,-111.905,0.212418,0.0432153,-111.985,8.05342
1946575,-0.003111,-0.030927,1.03804,-4.13,0.49,-3.325,0.37744,0.1092,-0.5313,41.4877,-89.5063,181.308,13,1,33.38,1025.96,-112.48,0.09375,0.0976562,1.05469,1,1,1,1,0,-111.901,0.211355,-0.0225558,-111.988,8.04375
1946585,-0.003111,-0.030927,1.03804,-4.13,0.49,-3.325,0.37744,0.1092,-0.5313,41.4877,-89.5063,181.308,13,1,33.38,1025.96,-112.48,0.09375,0.0976562,1.05469,1,1,1,1,0,-111.901,0.211355,-0.0225558,-111.988,8.04375
1946595,0.011285,-0.032208,1.02376,-6.60625,4.73375,9.51125,0.39732,0.15582,-0.52668,41.4877,-89.5063,181.308,13,1,33.38,1025.94,-112.305,0.09375,0.0976562,1.05469,1,1,1,1,0,-111.901,0.211355,-0.0225558,-111.988,8.05342
1946605,0.011285,-0.032208,1.02376,-6.60625,4.73375,9.51125,0.39732,0.15582,-0.52668,41.4877,-89.5063,181.308,13,1,33.38,1025.94,-112.305,0.0917969,0.103516,1.04883,1,1,1,1,0,-111.901,0.211355,-0.0225558,-111.988,8.05342
1946615,0.011285,-0.032208,1.02376,-6.60625,4.73375,9.51125,0.39732,0.15582,-0.52668,41.4877,-89.5063,181.308,13,1,33.38,1025.94,-112.305,0.0917969,0.103516,1.04883,1,1,1,1,0,-111.901,0.211355,-0.0225558,-111.988,8.05342
1946625,-0.027938,-0.031964,1.02578,-3.2375,6.34375,-11.2262,0.40474,0.18004,-0.52234,41.4877,-89.5063,181.308,13,1,33.38,1025.94,-112.305,0.09375,0.105469,1.05078,1,1,1,1,0,-111.899,0.210238,0.0208775,-111.985,8.05342
1946635,-0.027938,-0.031964,1.02578,-3.2375,6.34375,-11.2262,0.40474,0.18004,-0.52234,41.4877,-89.5063,181.308,13,1,33.38,1025.94,-112.305,0.09375,0.105469,1.05078,1,1,1,1,0,-111.899,0.210238,0.0208775,-111.985,8.05342
1946645,-0.027938,-0.031964,1.02578,-3.2375,6.34375,-11.2262,0.40474,0.18004,-0.52234,41.4877,-89.5063,181.308,13,1,33.38,1025.94,-112.305,0.09375,0.105469,1.05078,1,1,1,1,0,-111.899,0.210238,0.0208775,-111.985,8.05342
1946655,0.016592,-0.025376,1.03291,-4.9,3.68375,4.19125,0.37548,0.11522,-0.53298,41.4877,-89.5063,181.308,13,1,33.38,1025.95,-112.393,0.0957031,0.105469,1.05469,1,1,1,1,0,-111.899,0.210238,0.0208775,-111.985,8.05342
1946665,0.016592,-0.025376,1.03291,-4.9,3.68375,4.19125,0.37548,0.11522,-0.53298,41.4877,-89.5063,181.308,13,1,33.38,1025.95,-112.393,0.0957031,0.105469,1.05469,1,1,1,1,0,-111.899,0.210238,0.0208775,-111.985,8.05342
1946675,-0.238205,-0.047458,1.03261,-5.31125,3.1675,5.4775,0.4123,0.19208,-0.5348,41.4877,-89.5063,181.308,13,1,33.38,1025.96,-112.48,0.0839844,0.109375,1.05469,1,1,1,1,0,-111.898,0.211635,0.0767539,-111.983,8.07275
1946685,-0.238205,-0.047458,1.03261,-5.31125,3.1675,5.4775,0.4123,0.19208,-0.5348,41.4877,-89.5063,181.308,13,1,33.38,1025.96,-112.48,0.0839844,0.109375,1.05469,1,1,1,1,0,-111.898,0.211635,0.0767539,-111.983,8.07275
1946695,-0.238205,-0.047458,1.03261,-5.31125,3.1675,5.4775,0.4123,0.19208,-0.5348,41.4877,-89.5063,181.308,13,1,33.38,1025.96,-112.48,0.0839844,0.109375,1.05469,1,1,1,1,0,-111.898,0.211635,0.0767539,-111.983,8.07275
1946705,0.006466,-0.023973,1.04359,-4.29625,3.49125,-5.78375,0.40012,0.10262,-0.50946,41.4877,-89.5063,181.308,13,1,33.39,1025.96,-112.484,0.0820312,0.111328,1.06055,1,1,1,1,0,-111.898,0.211635,0.0767539,-111.983,7.99541
1946715,0.006466,-0.023973,1.04359,-4.29625,3.49125,-5.78375,0.40012,0.10262,-0.50946,41.4877,-89.5063,181.308,13,1,33.39,1025.96,-112.484,0.0820312,0.111328,1.06055,1,1,1,1,0,-111.898,0.211635,0.0767539,-111.983,7.99541
1946725,-0.015982,-0.026291,1.0212,-4.78625,0.98875,-0.49,0.3969,0.10066,-0.51198,41.4877,-89.5063,181.308,13,1,33.38,1025.95,-112.393,0.0820312,0.111328,1.06055,1,1,1,1,0,-111.898,0.211635,0.0767539,-111.983,7.99541
1946735,-0.015982,-0.026291,1.0212,-4.78625,0.98875,-0.49,0.3969,0.10066,-0.51198,41.4877,-89.5063,181.308,13,1,33.38,1025.95,-112.393,0.0800781,0.113281,1.05273,1,1,1,1,0,-111.898,0.212696,0.03219,-111.982,8.03408
1946745,-0.015982,-0.026291,1.0212,-4.78625,0.98875,-0.49,0.3969,0.10066,-0.51198,41.4877,-89.5063,181.308,13,1,33.38,1025.95,-112.393,0.0800781,0.113281,1.05273,1,1,1,1,0,-111.898,0.212696,0.03219,-111.982,8.03408
1946755,-0.018727,-0.025925,1.04176,-3.57875,2.1525,-6.335,0.3941,0.17584,-0.56196,41.4877,-89.5063,181.316,13,1,33.39,1025.96,-112.484,0.0800781,0.119141,1.05469,1,1,1,1,0,-111.898,0.212696,0.03219,-111.982,8.04375
1946765,-0.018727,-0.025925,1.04176,-3.57875,2.1525,-6.335,0.3941,0.17584,-0.56196,41.4877,-89.5063,181.316,13,1,33.39,1025.96,-112.484,0.0800781,0.119141,1.05469,1,1,1,1,0,-111.898,0.212696,0.03219,-111.982,8.04375
1946775,-0.018727,-0.025925,1.04176,-3.57875,2.1525,-6.335,0.3941,0.17584,-0.56196,41.4877,-89.5063,181.316,13,1,33.39,1025.96,-112.484,0.0800781,0.119141,1.05469,1,1,1,1,0,-111.898,0.212696,0.03219,-111.982,8.04375
1946785,-0.052582,-0.010797,1.02492,-3.99875,2.03,-5.83625,0.3969,0.18382,-0.56406,41.4877,-89.5063,181.316,13,1,33.39,1025.97,-112.57,0.0839844,0.119141,1.05469,1,1,1,1,0,-111.894,0.214887,0.0780495,-111.981,8.04375
1946795,-0.052582,-0.010797,1.02492,-3.99875,2.03,-5.83625,0.3969,0.18382,-0.56406,41.4877,-89.5063,181.316,13,1,33.39,1025.97,-112.57,0.0839844,0.119141,1.05469,1,1,1,1,0,-111.894,0.214887,0.0780495,-111.981,8.04375
1946805,0.134627,-0.006466,1.06036,-3.8675,2.345,-4.15625,0.39508,0.10556,-0.50456,41.4877,-89.5063,181.316,13,1,33.39,1025.94,-112.309,0.0878906,0.111328,1.06055,1,1,1,1,0,-111.894,0.214887,0.0780495,-111.981,8.01475
1946815,0.134627,-0.006466,1.06036,-3.8675,2.345,-4.15625,0.39508,0.10556,-0.50456,41.4877,-89.5063,181.316,13,1,33.39,1025.94,-112.309,0.0878906,0.111328,1.06055,1,1,1,1,0,-111.894,0.214887,0.0780495,-111.981,8.01475
1946825,0.134627,-0.006466,1.06036,-3.8675,2.345,-4.15625,0.39508,0.10556,-0.50456,41.4877,-89.5063,181.316,13,1,33.39,1025.94,-112.309,0.0878906,0.111328,1.06055,1,1,1,1,0,-111.894,0.214887,0.0780495,-111.981,8.01475
1946835,0.012017,0.000854,1.04639,-3.465,3.8675,-5.90625,0.3745,0.11508,-0.51366,41.4877,-89.5063,181.316,13,1,33.39,1025.97,-112.57,0.0878906,0.115234,1.06055,1,1,1,1,0,-111.889,0.215023,-0.00378238,-111.977,8.01475
1946845,0.012017,0.000854,1.04639,-3.465,3.8675,-5.90625,0.3745,0.11508,-0.51366,41.4877,-89.5063,181.316,13,1,33.39,1025.97,-112.57,0.0878906,0.115234,1.06055,1,1,1,1,0,-111.889,0.215023,-0.00378238,-111.977,8.01475
1946855,0.012017,0.000854,1.04639,-3.465,3.8675,-5.90625,0.3745,0.11508,-0.51366,41.4877,-89.5063,181.316,13,1,33.39,1025.97,-112.57,0.0878906,0.115234,1.06055,1,1,1,1,0,-111.889,0.215023,-0.00378238,-111.977,8.01475
1946865,-0.039467,-0.009943,1.02693,-3.5,-3.70125,-1.32125,0.39354,0.1799,-0.5152,41.4877,-89.5063,181.316,13,1,33.39,1025.96,-112.484,0.0820312,0.125,1.05078,1,1,1,1,0,-111.889,0.215023,-0.00378238,-111.977,8.05342
1946875,-0.039467,-0.009943,1.02693,-3.5,-3.70125,-1.32125,0.39354,0.1799,-0.5152,41.4877,-89.5063,181.316,13,1,33.39,1025.96,-112.484,0.0820312,0.125,1.05078,1,1,1,1,0,-111.889,0.215023,-0.00378238,-111.977,8.05342
1946885,-0.035319,-0.01403,1.03401,-5.53,5.845,-4.89125,0.37716,0.10836,-0.581,41.4877,-89.5063,181.316,13,1,33.37,1025.96,-112.477,0.0820312,0.125,1.05078,1,1,1,1,0,-111.889,0.215023,-0.00378238,-111.977,8.07275
1946895,-0.035319,-0.01403,1.03401,-5.53,5.845,-4.89125,0.37716,0.10836,-0.581,41.4877,-89.5063,181.316,13,1,33.37,1025.96,-112.477,0.0820312,0.125,1.05078,1,1,1,1,0,-111.889,0.215023,-0.00378238,-111.977,8.07275
1946905,-0.035319,-0.01403,1.03401,-5.53,5.845,-4.89125,0.37716,0.10836,-0.581,41.4877,-89.5063,181.316,13,1,33.37,1025.96,-112.477,0.0800781,0.123047,1.05078,1,1,1,1,0,-111.887,0.212973,-0.0109135,-111.972,8.07275
1946915,-0.035319,-0.01403,1.03401,-5.53,5.845,-4.89125,0.37716,0.10836,-0.581,41.4877,-89.5063,181.316,13,1,33.37,1025.96,-112.477,0.0800781,0.123047,1.05078,1,1,1,1,0,-111.887,0.212973,-0.0109135,-111.972,8.07275
1946925,-0.071614,-0.013725,1.03419,-6.4925,2.415,10.7975,0.4081,0.17038,-0.53256,41.4877,-89.5063,181.316,13,1,33.37,1025.95,-112.389,0.0859375,0.125,1.05078,1,1,1,1,0,-111.887,0.212973,-0.0109135,-111.972,8.04375
1946935,-0.071614,-0.013725,1.03419,-6.4925,2.415,10.7975,0.4081,0.17038,-0.53256,41.4877,-89.5063,181.316,13,1,33.37,1025.95,-112.389,0.0859375,0.125,1.05078,1,1,1,1,0,-111.887,0.212973,-0.0109135,-111.972,8.04375
1946945,-0.071614,-0.013725,1.03419,-6.4925,2.415,10.7975,0.4081,0.17038,-0.53256,41.4877,-89.5063,181.316,13,1,33.37,1025.95,-112.389,0.0859375,0.125,1.05078,1,1,1,1,0,-111.887,0.212973,-0.0109135,-111.972,8.04375
1946955,-0.032574,-0.020862,1.03139,-4.24375,-0.56,-2.65125,0.38976,0.10822,-0.53214,41.4877,-89.5063,181.301,13,1,33.37,1025.95,-112.389,0.0878906,0.126953,1.05469,1,1,1,1,0,-111.888,0.210144,-0.0117631,-111.971,8.06309
1946965,-0.032574,-0.020862,1.03139,-4.24375,-0.56,-2.65125,0.38976,0.10822,-0.53214,41.4877,-89.5063,181.301,13,1,33.37,1025.95,-112.389,0.0878906,0.126953,1.05469,1,1,1,1,0,-111.888,0.210144,-0.0117631,-111.971,8.06309
1946975,-0.024705,-0.017324,1.03157,-3.01,1.39125,-15.1112,0.3724,0.11312,-0.53998,41.4877,-89.5063,181.301,13,1,33.38,1025.97,-112.567,0.0898438,0.123047,1.05078,1,1,1,1,0,-111.888,0.210144,-0.0117631,-111.971,8.07275
1946985,-0.024705,-0.017324,1.03157,-3.01,1.39125,-15.1112,0.3724,0.11312,-0.53998,41.4877,-89.5063,181.301,13,1,33.38,1025.97,-112.567,0.0898438,0.123047,1.05078,1,1,1,1,0,-111.888,0.210144,-0.0117631,-111.971,8.07275
1946995,-0.024705,-0.017324,1.03157,-3.01,1.39125,-15.1112,0.3724,0.11312,-0.53998,41.4877,-89.5063,181.301,13,1,33.38,1025.97,-112.567,0.0898438,0.123047,1.05078,1,1,1,1,0,-111.888,0.210144,-0.0117631,-111.971,8.07275
1947005,-0.04026,-0.027267,1.0348,-3.9375,1.8725,-6.67625,0.4151,0.18354,-0.53214,41.4877,-89.5063,181.301,13,1,33.38,1025.94,-112.305,0.0898438,0.123047,1.05078,1,1,1,1,0,-111.888,0.210144,-0.0117631,-111.971,8.07275
1947015,-0.04026,-0.027267,1.0348,-3.9375,1.8725,-6.67625,0.4151,0.18354,-0.53214,41.4877,-89.5063,181.301,13,1,33.38,1025.94,-112.305,0.0859375,0.119141,1.05078,1,1,1,1,0,-111.888,0.207168,-0.0287611,-111.972,8.03408
1947025,-0.04026,-0.027267,1.0348,-3.9375,1.8725,-6.67625,0.4151,0.18354,-0.53214,41.4877,-89.5063,181.301,13,1,33.38,1025.94,-112.305,0.0859375,0.119141,1.05078,1,1,1,1,0,-111.888,0.207168,-0.0287611,-111.972,8.03408
1947035,-0.01586,-0.020679,1.03413,-3.64875,1.70625,-6.81625,0.40684,0.16226,-0.55818,41.4877,-89.5063,181.301,13,1,33.38,1025.96,-112.48,0.0839844,0.125,1.04883,1,1,1,1,0,-111.888,0.207168,-0.0287611,-111.972,8.04375
1947045,-0.01586,-0.020679,1.03413,-3.64875,1.70625,-6.81625,0.40684,0.16226,-0.55818,41.4877,-89.5063,181.301,13,1,33.38,1025.96,-112.48,0.0839844,0.125,1.04883,1,1,1,1,0,-111.888,0.207168,-0.0287611,-111.972,8.04375
1947055,-0.001586,-0.035685,1.02761,-3.82375,1.70625,-6.51875,0.37884,0.10654,-0.53746,41.4877,-89.5063,181.301,13,1,33.38,1025.95,-112.393,0.0859375,0.121094,1.05078,1,1,1,1,0,-111.888,0.207168,-0.0287611,-111.972,8.06309
1947065,-0.001586,-0.035685,1.02761,-3.82375,1.70625,-6.51875,0.37884,0.10654,-0.53746,41.4877,-89.5063,181.301,13,1,33.38,1025.95,-112.393,0.0859375,0.121094,1.05078,1,1,1,1,0,-111.888,0.204994,0.00306366,-111.973,8.06309
1947075,-0.001586,-0.035685,1.02761,-3.82375,1.70625,-6.51875,0.37884,0.10654,-0.53746,41.4877,-89.5063,181.301,13,1,33.38,1025.95,-112.393,0.0859375,0.121094,1.05078,1,1,1,1,0,-111.888,0.204994,0.00306366,-111.973,8.06309
1947085,-0.002013,-0.030134,1.03303,-4.4975,2.94875,-0.7,0.4109,0.1876,-0.52976,41.4877,-89.5063,181.301,13,1,33.38,1025.96,-112.48,0.0859375,0.121094,1.05273,1,1,1,1,0,-111.888,0.204994,0.00306366,-111.973,8.01475
1947095,-0.002013,-0.030134,1.03303,-4.4975,2.94875,-0.7,0.4109,0.1876,-0.52976,41.4877,-89.5063,181.301,13,1,33.38,1025.96,-112.48,0.0859375,0.121094,1.05273,1,1,1,1,0,-111.888,0.204994,0.00306366,-111.973,8.01475
1947105,-0.02684,-0.018666,1.04444,-1.39125,0.455,-17.7625,0.4039,0.10164,-0.50022,41.4877,-89.5063,181.301,13,1,33.38,1025.94,-112.305,0.0839844,0.117188,1.05273,1,1,1,1,0,-111.888,0.204994,0.00306366,-111.973,8.03408
1947115,-0.02684,-0.018666,1.04444,-1.39125,0.455,-17.7625,0.4039,0.10164,-0.50022,41.4877,-89.5063,181.301,13,1,33.38,1025.94,-112.305,0.0839844,0.117188,1.05273,1,1,1,1,0,-111.888,0.20361,0.00680939,-111.974,8.03408
1947125,-0.02684,-0.018666,1.04444,-1.39125,0.455,-17.7625,0.4039,0.10164,-0.50022,41.4877,-89.5063,181.301,13,1,33.38,1025.94,-112.305,0.0839844,0.117188,1.05273,1,1,1,1,0,-111.888,0.20361,0.00680939,-111.974,8.03408
1947135,-0.009943,-0.028487,1.03346,-5.7575,2.59,8.91625,0.40068,0.10248,-0.51324,41.4877,-89.5063,181.301,13,1,33.38,1025.96,-112.48,0.0878906,0.115234,1.05273,1,1,1,1,0,-111.888,0.20361,0.00680939,-111.974,7.87939
1947145,-0.009943,-0.028487,1.03346,-5.7575,2.59,8.91625,0.40068,0.10248,-0.51324,41.4877,-89.5063,181.301,13,1,33.38,1025.96,-112.48,0.0878906,0.115234,1.05273,1,1,1,1,0,-111.888,0.20361,0.00680939,-111.974,7.87939
1947155,-0.009943,-0.028487,1.03346,-5.7575,2.59,8.91625,0.40068,0.10248,-0.51324,41.4877,-89.5063,181.301,13,1,33.38,1025.96,-112.48,0.0878906,0.115234,1.05273,1,1,1,1,0,-111.888,0.20361,0.00680939,-111.974,7.87939
1947165,0.002074,-0.024339,1.03541,-0.6125,1.47,-18.375,0.39872,0.10178,-0.51086,41.4877,-89.5063,181.285,13,1,33.39,1025.97,-112.57,0.0878906,0.115234,1.05078,1,1,1,1,0,-111.89,0.201028,-0.0266479,-111.974,7.98574
1947175,0.002074,-0.024339,1.03541,-0.6125,1.47,-18.375,0.39872,0.10178,-0.51086,41.4877,-89.5063,181.285,13,1,33.39,1025.97,-112.57,0.0878906,0.115234,1.05078,1,1,1,1,0,-111.89,0.201028,-0.0266479,-111.974,7.98574
1947185,-0.004026,-0.008845,1.02425,-0.4025,-0.735,-24.1325,0.39788,0.16478,-0.5236,41.4877,-89.5063,181.285,13,1,33.39,1025.97,-112.57,0.0859375,0.111328,1.04883,1,1,1,1,0,-111.89,0.201028,-0.0266479,-111.974,8.04375
1947195,-0.004026,-0.008845,1.02425,-0.4025,-0.735,-24.1325,0.39788,0.16478,-0.5236,41.4877,-89.5063,181.285,13,1,33.39,1025.97,-112.57,0.0859375,0.111328,1.04883,1,1,1,1,0,-111.89,0.201028,-0.0266479,-111.974,8.04375
1947205,-0.004026,-0.008845,1.02425,-0.4025,-0.735,-24.1325,0.39788,0.16478,-0.5236,41.4877,-89.5063,181.285,13,1,33.39,1025.97,-112.57,0.0859375,0.111328,1.04883,1,1,1,1,0,-111.89,0.201028,-0.0266479,-111.974,8.04375
1947215,-0.015738,-0.034038,1.03322,-3.64875,5.97625,-8.81125,0.37226,0.1015,-0.5201,41.4877,-89.5063,181.285,13,1,33.39,1025.96,-112.484,0.0839844,0.103516,1.05078,1,1,1,1,0,-111.891,0.198838,0.00342671,-111.977,7.99541
1947225,-0.015738,-0.034038,1.03322,-3.64875,5.97625,-8.81125,0.37226,0.1015,-0.5201,41.4877,-89.5063,181.285,13,1,33.39,1025.96,-112.484,0.0839844,0.103516,1.05078,1,1,1,1,0,-111.891,0.198838,0.00342671,-111.977,7.99541
1947235,-0.000244,-0.022814,1.03578,-4.19125,-0.21,0.32375,0.39662,0.1624,-0.56406,41.4877,-89.5063,181.285,13,1,33.39,1025.97,-112.57,0.0839844,0.103516,1.05078,1,1,1,1,0,-111.891,0.198838,0.00342671,-111.977,7.99541
1947245,-0.000244,-0.022814,1.03578,-4.19125,-0.21,0.32375,0.39662,0.1624,-0.56406,41.4877,-89.5063,181.285,13,1,33.39,1025.97,-112.57,0.0859375,0.103516,1.05273,1,1,1,1,0,-111.891,0.198838,0.00342671,-111.977,8.04375
1947255,-0.000244,-0.022814,1.03578,-4.19125,-0.21,0.32375,0.39662,0.1624,-0.56406,41.4877,-89.5063,181.285,13,1,33.39,1025.97,-112.57,0.0859375,0.103516,1.05273,1,1,1,1,0,-111.891,0.198838,0.00342671,-111.977,8.04375
1947265,-0.018666,-0.021777,1.02944,-3.7975,2.485,-5.9675,0.399,0.1015,-0.51212,41.4877,-89.5063,181.285,13,1,33.39,1025.96,-112.484,0.0898438,0.0996094,1.05273,1,1,1,1,0,-111.886,0.197927,0.00692699,-111.979,8.05342
1947275,-0.018666,-0.021777,1.02944,-3.7975,2.485,-5.9675,0.399,0.1015,-0.51212,41.4877,-89.5063,181.285,13,1,33.39,1025.96,-112.484,0.0898438,0.0996094,1.05273,1,1,1,1,0,-111.886,0.197927,0.00692699,-111.979,8.05342
1947285,-0.018666,-0.021777,1.02944,-3.7975,2.485,-5.9675,0.399,0.1015,-0.51212,41.4877,-89.5063,181.285,13,1,33.39,1025.96,-112.484,0.0898438,0.0996094,1.05273,1,1,1,1,0,-111.886,0.197927,0.00692699,-111.979,8.05342
1947295,-0.07381,-0.029829,1.02663,-3.535,1.645,-5.73125,0.37744,0.11214,-0.52654,41.4877,-89.5063,181.285,13,1,33.37,1025.94,-112.301,0.0898438,0.0996094,1.05273,1,1,1,1,0,-111.886,0.197927,0.00692699,-111.979,8.08242
1947305,-0.07381,-0.029829,1.02663,-3.535,1.645,-5.73125,0.37744,0.11214,-0.52654,41.4877,-89.5063,181.285,13,1,33.37,1025.94,-112.301,0.0898438,0.0996094,1.05273,1,1,1,1,0,-111.886,0.197927,0.00692699,-111.979,8.08242
1947315,-0.07381,-0.029829,1.02663,-3.535,1.645,-5.73125,0.37744,0.11214,-0.52654,41.4877,-89.5063,181.285,13,1,33.37,1025.94,-112.301,0.0898438,0.0996094,1.05078,1,1,1,1,0,-111.886,0.197927,0.00692699,-111.979,8.08242
1947325,-0.07381,-0.029829,1.02663,-3.535,1.645,-5.73125,0.37744,0.11214,-0.52654,41.4877,-89.5063,181.285,13,1,33.37,1025.94,-112.301,0.0898438,0.0996094,1.05078,1,1,1,1,0,-111.886,0.197927,0.00692699,-111.979,8.08242
1947335,0.309636,0.012444,1.04261,-3.75375,1.61875,-5.495,0.40866,0.19012,-0.52668,41.4877,-89.5063,181.285,13,1,33.37,1025.98,-112.651,0.09375,0.101562,1.05664,1,1,1,1,0,-111.889,0.19777,0.0581912,-111.974,8.06309
1947345,0.309636,0.012444,1.04261,-3.75375,1.61875,-5.495,0.40866,0.19012,-0.52668,41.4877,-89.5063,181.285,13,1,33.37,1025.98,-112.651,0.09375,0.101562,1.05664,1,1,1,1,0,-111.889,0.19777,0.0581912,-111.974,8.06309
1947355,-0.003355,-0.01586,1.032,-3.82375,1.0325,-6.965,0.4046,0.16492,-0.5509,41.4877,-89.5063,181.272,13,1,33.38,1025.98,-112.654,0.0957031,0.0976562,1.05859,1,1,1,1,0,-111.889,0.19777,0.0581912,-111.974,8.02441
1947365,-0.003355,-0.01586,1.032,-3.82375,1.0325,-6.965,0.4046,0.16492,-0.5509,41.4877,-89.5063,181.272,13,1,33.38,1025.98,-112.654,0.0957031,0.0976562,1.05859,1,1,1,1,0,-111.889,0.19777,0.0581912,-111.974,8.02441
1947375,-0.003355,-0.01586,1.032,-3.82375,1.0325,-6.965,0.4046,0.16492,-0.5509,41.4877,-89.5063,181.272,13,1,33.38,1025.98,-112.654,0.0957031,0.0976562,1.05859,1,1,1,1,0,-111.889,0.19777,0.0581912,-111.974,8.02441
1947385,0.015311,-0.014213,1.03718,-3.43,-3.61375,-2.135,0.3745,0.11494,-0.53424,41.4877,-89.5063,181.272,13,1,33.38,1025.95,-112.393,0.0898438,0.0957031,1.05273,1,1,1,1,0,-111.892,0.197154,0.0130907,-111.977,8.05342
1947395,0.015311,-0.014213,1.03718,-3.43,-3.61375,-2.135,0.3745,0.11494,-0.53424,41.4877,-89.5063,181.272,13,1,33.38,1025.95,-112.393,0.0898438,0.0957031,1.05273,1,1,1,1,0,-111.892,0.197154,0.0130907,-111.977,8.05342
1947405,-0.012688,-0.017934,1.0295,-5.92375,4.27,11.27,0.40362,0.19068,-0.532,41.4877,-89.5063,181.272,13,1,33.38,1025.98,-112.654,0.0839844,0.0996094,1.05273,1,1,1,1,0,-111.892,0.197154,0.0130907,-111.977,8.05342
1947415,-0.012688,-0.017934,1.0295,-5.92375,4.27,11.27,0.40362,0.19068,-0.532,41.4877,-89.5063,181.272,13,1,33.38,1025.98,-112.654,0.0839844,0.0996094,1.05273,1,1,1,1,0,-111.892,0.197154,0.0130907,-111.977,8.05342
1947425,-0.012688,-0.017934,1.0295,-5.92375,4.27,11.27,0.40362,0.19068,-0.532,41.4877,-89.5063,181.272,13,1,33.38,1025.98,-112.654,0.0839844,0.0996094,1.05273,1,1,1,1,0,-111.892,0.197154,0.0130907,-111.977,8.05342
1947435,-0.040382,-0.015128,1.0323,-4.15625,4.025,-7.49,0.40474,0.19488,-0.5292,41.4877,-89.5063,181.272,13,1,33.38,1025.94,-112.305,0.0839844,0.103516,1.05078,1,1,1,1,0,-111.895,0.194991,-0.00902473,-111.98,8.06309
1947445,-0.040382,-0.015128,1.0323,-4.15625,4.025,-7.49,0.40474,0.19488,-0.5292,41.4877,-89.5063,181.272,13,1,33.38,1025.94,-112.305,0.0839844,0.103516,1.05078,1,1,1,1,0,-111.895,0.194991,-0.00902473,-111.98,8.06309
1947455,-0.040382,-0.015128,1.0323,-4.15625,4.025,-7.49,0.40474,0.19488,-0.5292,41.4877,-89.5063,181.272,13,1,33.38,1025.94,-112.305,0.0839844,0.103516,1.05078,1,1,1,1,0,-111.895,0.194991,-0.00902473,-111.98,8.06309
1947465,-0.28975,-0.048922,1.06335,-0.76125,2.2225,-20.93,0.37772,0.11522,-0.52962,41.4877,-89.5063,181.272,13,1,33.38,1025.98,-112.654,0.0917969,0.105469,1.05078,1,1,1,1,0,-111.895,0.194991,-0.00902473,-111.98,8.06309
1947475,-0.28975,-0.048922,1.06335,-0.76125,2.2225,-20.93,0.37772,0.11522,-0.52962,41.4877,-89.5063,181.272,13,1,33.38,1025.98,-112.654,0.0917969,0.105469,1.05078,1,1,1,1,0,-111.895,0.194991,-0.00902473,-111.98,8.06309
1947485,0.23302,-0.041602,1.01138,-6.125,4.9525,1.505,0.4095,0.19474,-0.5285,41.4877,-89.5063,181.272,13,1,33.39,1025.96,-112.484,0.09375,0.0976562,1.05664,1,1,1,1,0,-111.897,0.196007,0.0903203,-111.984,8.06309
1947495,0.23302,-0.041602,1.01138,-6.125,4.9525,1.505,0.4095,0.19474,-0.5285,41.4877,-89.5063,181.272,13,1,33.39,1025.96,-112.484,0.09375,0.0976562,1.05664,1,1,1,1,0,-111.897,0.196007,0.0903203,-111.984,8.06309
1947505,0.23302,-0.041602,1.01138,-6.125,4.9525,1.505,0.4095,0.19474,-0.5285,41.4877,-89.5063,181.272,13,1,33.39,1025.96,-112.484,0.09375,0.0976562,1.05664,1,1,1,1,0,-111.897,0.196007,0.0903203,-111.984,8.06309
1947515,0.016165,-0.040382,1.03358,-2.2225,5.18,-14.2013,0.39354,0.13132,-0.5243,41.4877,-89.5063,181.272,13,1,33.38,1025.97,-112.567,0.0957031,0.0976562,1.0625,1,1,1,1,0,-111.897,0.196007,0.0903203,-111.984,8.04375
1947525,0.016165,-0.040382,1.03358,-2.2225,5.18,-14.2013,0.39354,0.13132,-0.5243,41.4877,-89.5063,181.272,13,1,33.38,1025.97,-112.567,0.0957031,0.0976562,1.0625,1,1,1,1,0,-111.897,0.196007,0.0903203,-111.984,8.04375
1947535,0.007137,-0.022143,1.03499,-3.7275,3.0275,-7.4725,0.36582,0.10178,-0.51744,41.4877,-89.5063,181.272,13,1,33.38,1025.94,-112.305,0.09375,0.0996094,1.05273,1,1,1,1,0,-111.898,0.197142,0.0337326,-111.985,8.05342
1947545,0.007137,-0.022143,1.03499,-3.7275,3.0275,-7.4725,0.36582,0.10178,-0.51744,41.4877,-89.5063,181.272,13,1,33.38,1025.94,-112.305,0.09375,0.0996094,1.05273,1,1,1,1,0,-111.898,0.197142,0.0337326,-111.985,8.05342
1947555,0.007137,-0.022143,1.03499,-3.7275,3.0275,-7.4725,0.36582,0.10178,-0.51744,41.4877,-89.5063,181.272,13,1,33.38,1025.94,-112.305,0.09375,0.0996094,1.05273,1,1,1,1,0,-111.898,0.197142,0.0337326,-111.985,8.05342
1947565,0.053924,-0.037149,1.05243,-3.00125,1.18125,-8.18125,0.40026,0.19558,-0.51254,41.4877,-89.5063,181.254,13,1,33.39,1025.97,-112.57,0.09375,0.0996094,1.05469,1,1,1,1,0,-111.898,0.197142,0.0337326,-111.985,8.00508
1947575,0.053924,-0.037149,1.05243,-3.00125,1.18125,-8.18125,0.40026,0.19558,-0.51254,41.4877,-89.5063,181.254,13,1,33.39,1025.97,-112.57,0.09375,0.0996094,1.05469,1,1,1,1,0,-111.898,0.197142,0.0337326,-111.985,8.00508
1947585,0.053924,-0.037149,1.05243,-3.00125,1.18125,-8.18125,0.40026,0.19558,-0.51254,41.4877,-89.5063,181.254,13,1,33.39,1025.97,-112.57,0.09375,0.0996094,1.05469,1,1,1,1,0,-111.898,0.197142,0.0337326,-111.985,8.00508
1947595,0.033977,-0.027877,1.0295,-3.675,2.415,-6.23,0.39676,0.1036,-0.51604,41.4877,-89.5063,181.254,13,1,33.39,1025.95,-112.396,0.0898438,0.0957031,1.05469,1,1,1,1,0,-111.895,0.197095,0.0103176,-111.986,8.03408
1947605,0.033977,-0.027877,1.0295,-3.675,2.415,-6.23,0.39676,0.1036,-0.51604,41.4877,-89.5063,181.254,13,1,33.39,1025.95,-112.396,0.0898438,0.0957031,1.05469,1,1,1,1,0,-111.895,0.197095,0.0103176,-111.986,8.03408
1947615,-0.297558,-0.043676,1.0312,-3.80625,1.88125,-3.5875,0.3955,0.10766,-0.50876,41.4877,-89.5063,181.254,13,1,33.39,1025.94,-112.309,0.0878906,0.0976562,1.05273,1,1,1,1,0,-111.895,0.197095,0.0103176,-111.986,8.02441
1947625,-0.297558,-0.043676,1.0312,-3.80625,1.88125,-3.5875,0.3955,0.10766,-0.50876,41.4877,-89.5063,181.254,13,1,33.39,1025.94,-112.309,0.0878906,0.0976562,1.05273,1,1,1,1,0,-111.895,0.197095,0.0103176,-111.986,8.02441
1947635,-0.297558,-0.043676,1.0312,-3.80625,1.88125,-3.5875,0.3955,0.10766,-0.50876,41.4877,-89.5063,181.254,13,1,33.39,1025.94,-112.309,0.0878906,0.0976562,1.05273,1,1,1,1,0,-111.895,0.197095,0.0103176,-111.986,8.02441
1947645,0.024644,-0.026413,1.05091,-3.07125,2.1525,-7.72625,0.39802,0.10724,-0.56532,41.4877,-89.5063,181.254,13,1,33.39,1025.94,-112.309,0.0859375,0.0917969,1.05664,1,1,1,1,0,-111.888,0.199173,0.0773165,-111.983,7.03828
1947655,0.024644,-0.026413,1.05091,-3.07125,2.1525,-7.72625,0.39802,0.10724,-0.56532,41.4877,-89.5063,181.254,13,1,33.39,1025.94,-112.309,0.0859375,0.0917969,1.05664,1,1,1,1,0,-111.888,0.199173,0.0773165,-111.983,7.03828
1947665,-0.004392,-0.025559,1.04145,-3.73625,2.695,-9.96625,0.39466,0.17598,-0.5635,41.4877,-89.5063,181.254,13,1,33.39,1025.94,-112.309,0.0859375,0.0917969,1.05664,1,1,1,1,0,-111.888,0.199173,0.0773165,-111.983,7.03828
1947675,-0.004392,-0.025559,1.04145,-3.73625,2.695,-9.96625,0.39466,0.17598,-0.5635,41.4877,-89.5063,181.254,13,1,33.39,1025.94,-112.309,0.0898438,0.0957031,1.06055,1,1,1,1,0,-111.888,0.199173,0.0773165,-111.983,7.98574
1947685,-0.004392,-0.025559,1.04145,-3.73625,2.695,-9.96625,0.39466,0.17598,-0.5635,41.4877,-89.5063,181.254,13,1,33.39,1025.94,-112.309,0.0898438,0.0957031,1.06055,1,1,1,1,0,-111.888,0.199173,0.0773165,-111.983,7.98574
1947695,-0.009882,-0.002867,1.02754,-4.80375,8.75,-8.365,0.41006,0.10934,-0.5257,41.4877,-89.5063,181.254,13,1,33.37,1025.95,-112.389,0.0898438,0.0957031,1.06055,1,1,1,1,0,-111.888,0.199173,0.0773165,-111.983,8.02441
1947705,-0.009882,-0.002867,1.02754,-4.80375,8.75,-8.365,0.41006,0.10934,-0.5257,41.4877,-89.5063,181.254,13,1,33.37,1025.95,-112.389,0.0898438,0.0957031,1.06055,1,1,1,1,0,-111.888,0.199173,0.0773165,-111.983,8.02441
1947715,-0.009882,-0.002867,1.02754,-4.80375,8.75,-8.365,0.41006,0.10934,-0.5257,41.4877,-89.5063,181.254,13,1,33.37,1025.95,-112.389,0.0878906,0.107422,1.05859,1,1,1,1,0,-111.885,0.202519,0.100086,-111.975,8.02441
1947725,-0.009882,-0.002867,1.02754,-4.80375,8.75,-8.365,0.41006,0.10934,-0.5257,41.4877,-89.5063,181.254,13,1,33.37,1025.95,-112.389,0.0878906,0.107422,1.05859,1,1,1,1,0,-111.885,0.202519,0.100086,-111.975,8.02441
1947735,-0.012932,-0.000183,1.02029,-0.28875,1.39125,-17.5438,0.40558,0.19012,-0.53018,41.4877,-89.5063,181.254,13,1,33.37,1025.94,-112.301,0.0839844,0.113281,1.0625,1,1,1,1,0,-111.885,0.202519,0.100086,-111.975,8.06309
1947745,-0.012932,-0.000183,1.02029,-0.28875,1.39125,-17.5438,0.40558,0.19012,-0.53018,41.4877,-89.5063,181.254,13,1,33.37,1025.94,-112.301,0.0839844,0.113281,1.0625,1,1,1,1,0,-111.885,0.202519,0.100086,-111.975,8.06309
1947755,-0.012932,-0.000183,1.02029,-0.28875,1.39125,-17.5438,0.40558,0.19012,-0.53018,41.4877,-89.5063,181.254,13,1,33.37,1025.94,-112.301,0.0839844,0.113281,1.0625,1,1,1,1,0,-111.885,0.202519,0.100086,-111.975,8.06309
1947765,-0.009882,-0.001464,1.02407,-6.15125,2.82625,13.3263,0.37478,0.11158,-0.53536,41.4877,-89.5063,181.235,13,1,33.38,1025.94,-112.305,0.0820312,0.115234,1.06445,1,1,1,1,0,-111.879,0.204732,0.035121,-111.972,8.07275
1947775,-0.009882,-0.001464,1.02407,-6.15125,2.82625,13.3263,0.37478,0.11158,-0.53536,41.4877,-89.5063,181.235,13,1,33.38,1025.94,-112.305,0.0820312,0.115234,1.06445,1,1,1,1,0,-111.879,0.204732,0.035121,-111.972,8.07275
1947785,-0.019642,-0.015982,1.03438,-3.59625,0.56875,0.805,0.38402,0.1099,-0.53788,41.4877,-89.5063,181.235,13,1,33.38,1025.92,-112.13,0.0859375,0.107422,1.05469,1,1,1,1,0,-111.879,0.204732,0.035121,-111.972,8.07275
1947795,-0.019642,-0.015982,1.03438,-3.59625,0.56875,0.805,0.38402,0.1099,-0.53788,41.4877,-89.5063,181.235,13,1,33.38,1025.92,-112.13,0.0859375,0.107422,1.05469,1,1,1,1,0,-111.879,0.204732,0.035121,-111.972,8.07275
1947805,-0.019642,-0.015982,1.03438,-3.59625,0.56875,0.805,0.38402,0.1099,-0.53788,41.4877,-89.5063,181.235,13,1,33.38,1025.92,-112.13,0.0859375,0.107422,1.05469,1,1,1,1,0,-111.879,0.204732,0.035121,-111.972,8.07275
1947815,-0.024095,-0.018971,1.02913,-3.605,-0.39375,-4.795,0.40866,0.19558,-0.53354,41.4877,-89.5063,181.235,13,1,33.38,1025.94,-112.305,0.0878906,0.109375,1.05273,1,1,1,1,0,-111.872,0.204127,-0.0233522,-111.965,8.07275
1947825,-0.024095,-0.018971,1.02913,-3.605,-0.39375,-4.795,0.40866,0.19558,-0.53354,41.4877,-89.5063,181.235,13,1,33.38,1025.94,-112.305,0.0878906,0.109375,1.05273,1,1,1,1,0,-111.872,0.204127,-0.0233522,-111.965,8.07275
1947835,-0.033367,-0.010187,1.03773,-3.6575,1.81125,-8.74125,0.38738,0.11214,-0.53186,41.4877,-89.5063,181.235,13,1,33.38,1025.91,-112.043,0.0898438,0.115234,1.04883,1,1,1,1,0,-111.872,0.204127,-0.0233522,-111.965,8.04375
1947845,-0.033367,-0.010187,1.03773,-3.6575,1.81125,-8.74125,0.38738,0.11214,-0.53186,41.4877,-89.5063,181.235,13,1,33.38,1025.91,-112.043,0.0898438,0.115234,1.04883,1,1,1,1,0,-111.872,0.204127,-0.0233522,-111.965,8.04375
1947855,-0.033367,-0.010187,1.03773,-3.6575,1.81125,-8.74125,0.38738,0.11214,-0.53186,41.4877,-89.5063,181.235,13,1,33.38,1025.91,-112.043,0.0898438,0.115234,1.04883,1,1,1,1,0,-111.872,0.204127,-0.0233522,-111.965,8.04375
1947865,-0.032391,0.005002,1.0442,-3.82375,2.24,-6.1075,0.37576,0.11032,-0.5817,41.4877,-89.5063,181.235,13,1,33.38,1025.94,-112.305,0.0898438,0.123047,1.05078,1,1,1,1,0,-111.868,0.202515,0.00381153,-111.957,8.06309
1947875,-0.032391,0.005002,1.0442,-3.82375,2.24,-6.1075,0.37576,0.11032,-0.5817,41.4877,-89.5063,181.235,13,1,33.38,1025.94,-112.305,0.0898438,0.123047,1.05078,1,1,1,1,0,-111.868,0.202515,0.00381153,-111.957,8.06309
1947885,-0.032391,0.005002,1.0442,-3.82375,2.24,-6.1075,0.37576,0.11032,-0.5817,41.4877,-89.5063,181.235,13,1,33.38,1025.94,-112.305,0.0898438,0.123047,1.05078,1,1,1,1,0,-111.868,0.202515,0.00381153,-111.957,8.06309
1947895,-0.025254,-0.00305,1.03218,-3.64,2.065,-4.41875,0.40852,0.1764,-0.5299,41.4877,-89.5063,181.235,13,1,33.38,1025.94,-112.305,0.0898438,0.125,1.05273,1,1,1,1,0,-111.868,0.202515,0.00381153,-111.957,8.06309
1947905,-0.025254,-0.00305,1.03218,-3.64,2.065,-4.41875,0.40852,0.1764,-0.5299,41.4877,-89.5063,181.235,13,1,33.38,1025.94,-112.305,0.0898438,0.125,1.05273,1,1,1,1,0,-111.868,0.202515,0.00381153,-111.957,8.06309
1947915,-0.024217,-0.005002,1.02761,-3.9025,2.45,-8.81125,0.39466,0.10304,-0.5278,41.4877,-89.5063,181.235,13,1,33.39,1025.95,-112.396,0.0878906,0.125,1.05273,1,1,1,1,0,-111.862,0.201496,-0.0100631,-111.955,8.04375
1947925,-0.024217,-0.005002,1.02761,-3.9025,2.45,-8.81125,0.39466,0.10304,-0.5278,41.4877,-89.5063,181.235,13,1,33.39,1025.95,-112.396,0.0878906,0.125,1.05273,1,1,1,1,0,-111.862,0.201496,-0.0100631,-111.955,8.04375
1947935,-0.024217,-0.005002,1.02761,-3.9025,2.45,-8.81125,0.39466,0.10304,-0.5278,41.4877,-89.5063,181.235,13,1,33.39,1025.95,-112.396,0.0878906,0.125,1.05273,1,1,1,1,0,-111.862,0.201496,-0.0100631,-111.955,8.04375
1947945,-0.005673,-0.007564,1.03877,-2.63375,4.27875,-8.25125,0.3738,0.10584,-0.52094,41.4877,-89.5063,181.235,13,1,33.38,1025.92,-112.13,0.0800781,0.121094,1.05078,1,1,1,1,0,-111.862,0.201496,-0.0100631,-111.955,8.00508
1947955,-0.005673,-0.007564,1.03877,-2.63375,4.27875,-8.25125,0.3738,0.10584,-0.52094,41.4877,-89.5063,181.235,13,1,33.38,1025.92,-112.13,0.0800781,0.121094,1.05078,1,1,1,1,0,-111.862,0.201496,-0.0100631,-111.955,8.00508
1947965,-0.030805,-0.021289,1.04298,-3.3075,4.55,-13.0813,0.40082,0.17822,-0.5138,41.4877,-89.5063,181.235,13,1,33.39,1025.95,-112.396,0.0800781,0.121094,1.05078,1,1,1,1,0,-111.862,0.201496,-0.0100631,-111.955,8.00508
1947975,-0.030805,-0.021289,1.04298,-3.3075,4.55,-13.0813,0.40082,0.17822,-0.5138,41.4877,-89.5063,181.212,13,1,33.39,1025.95,-112.396,0.0800781,0.121094,1.05273,1,1,1,1,0,-111.861,0.200015,0.00529319,-111.949,8.00508
1947985,-0.030805,-0.021289,1.04298,-3.3075,4.55,-13.0813,0.40082,0.17822,-0.5138,41.4877,-89.5063,181.212,13,1,33.39,1025.95,-112.396,0.0800781,0.121094,1.05273,1,1,1,1,0,-111.861,0.200015,0.00529319,-111.949,8.00508
1947995,-0.030805,-0.021289,1.04298,-3.3075,4.55,-13.0813,0.40082,0.17822,-0.5138,41.4877,-89.5063,181.212,13,1,33.39,1025.95,-112.396,0.0800781,0.121094,1.05273,1,1,1,1,0,-111.861,0.200015,0.00529319,-111.949,8.00508
1948005,-0.011163,-0.012993,1.03493,-6.95625,2.9575,15.9862,0.39494,0.10304,-0.49364,41.4877,-89.5063,181.212,13,1,33.39,1025.95,-112.396,0.0820312,0.125,1.05273,1,1,1,1,0,-111.861,0.200015,0.00529319,-111.949,8.01475
1948015,-0.011163,-0.012993,1.03493,-6.95625,2.9575,15.9862,0.39494,0.10304,-0.49364,41.4877,-89.5063,181.212,13,1,33.39,1025.95,-112.396,0.0820312,0.125,1.05273,1,1,1,1,0,-111.861,0.200015,0.00529319,-111.949,8.01475
1948025,-0.001952,-0.02074,1.03157,-2.73,3.8325,-12.81,0.3934,0.10766,-0.50512,41.4877,-89.5063,181.212,13,1,33.39,1025.95,-112.396,0.0839844,0.126953,1.05664,1,1,1,1,0,-111.857,0.200519,0.0410319,-111.948,8.02441
1948035,-0.001952,-0.02074,1.03157,-2.73,3.8325,-12.81,0.3934,0.10766,-0.50512,41.4877,-89.5063,181.212,13,1,33.39,1025.95,-112.396,0.0839844,0.126953,1.05664,1,1,1,1,0,-111.857,0.200519,0.0410319,-111.948,8.02441
1948045,-0.007808,-0.015616,1.02907,-6.27375,6.7025,-2.84375,0.39606,0.10304,-0.50946,41.4877,-89.5063,181.212,13,1,33.39,1025.93,-112.221,0.0839844,0.121094,1.05664,1,1,1,1,0,-111.857,0.200519,0.0410319,-111.948,8.05342
1948055,-0.007808,-0.015616,1.02907,-6.27375,6.7025,-2.84375,0.39606,0.10304,-0.50946,41.4877,-89.5063,181.212,13,1,33.39,1025.93,-112.221,0.0839844,0.121094,1.05664,1,1,1,1,0,-111.857,0.200519,0.0410319,-111.948,8.05342
1948065,-0.007808,-0.015616,1.02907,-6.27375,6.7025,-2.84375,0.39606,0.10304,-0.50946,41.4877,-89.5063,181.212,13,1,33.39,1025.93,-112.221,0.0839844,0.121094,1.05664,1,1,1,1,0,-111.857,0.200519,0.0410319,-111.948,8.05342
1948075,-0.012139,-0.009211,1.02602,-4.69875,6.2125,-0.28,0.3899,0.10556,-0.54614,41.4877,-89.5063,181.212,13,1,33.39,1025.93,-112.221,0.0820312,0.121094,1.05469,1,1,1,1,0,-111.855,0.20075,0.0278616,-111.944,8.01475
1948085,-0.012139,-0.009211,1.02602,-4.69875,6.2125,-0.28,0.3899,0.10556,-0.54614,41.4877,-89.5063,181.212,13,1,33.39,1025.93,-112.221,0.0820312,0.121094,1.05469,1,1,1,1,0,-111.855,0.20075,0.0278616,-111.944,8.01475
1948095,-0.412726,-0.049837,1.047,-4.305,1.40875,-3.255,0.37814,0.12026,-0.52892,41.4877,-89.5063,181.212,13,1,33.37,1025.96,-112.477,0.0820312,0.121094,1.05469,1,1,1,1,0,-111.855,0.20075,0.0278616,-111.944,8.01475
1948105,-0.412726,-0.049837,1.047,-4.305,1.40875,-3.255,0.37814,0.12026,-0.52892,41.4877,-89.5063,181.212,13,1,33.37,1025.96,-112.477,0.0820312,0.121094,1.05469,1,1,1,1,0,-111.855,0.20075,0.0278616,-111.944,8.02441
1948115,-0.412726,-0.049837,1.047,-4.305,1.40875,-3.255,0.37814,0.12026,-0.52892,41.4877,-89.5063,181.212,13,1,33.37,1025.96,-112.477,0.0820312,0.125,1.05664,1,1,1,1,0,-111.855,0.20075,0.0278616,-111.944,8.02441
1948125,-0.412726,-0.049837,1.047,-4.305,1.40875,-3.255,0.37814,0.12026,-0.52892,41.4877,-89.5063,181.212,13,1,33.37,1025.96,-112.477,0.0820312,0.125,1.05664,1,1,1,1,0,-111.855,0.20075,0.0278616,-111.944,8.02441
1948135,0.002806,-0.034648,1.02797,-3.73625,2.00375,-5.565,0.40992,0.18802,-0.52192,41.4877,-89.5063,181.212,13,1,33.37,1025.95,-112.389,0.0878906,0.128906,1.0625,1,1,1,1,0,-111.85,0.203972,0.111532,-111.942,8.07275
1948145,0.002806,-0.034648,1.02797,-3.73625,2.00375,-5.565,0.40992,0.18802,-0.52192,41.4877,-89.5063,181.212,13,1,33.37,1025.95,-112.389,0.0878906,0.128906,1.0625,1,1,1,1,0,-111.85,0.203972,0.111532,-111.942,8.07275
1948155,0.002806,-0.034648,1.02797,-3.73625,2.00375,-5.565,0.40992,0.18802,-0.52192,41.4877,-89.5063,181.212,13,1,33.37,1025.95,-112.389,0.0878906,0.128906,1.0625,1,1,1,1,0,-111.85,0.203972,0.111532,-111.942,8.07275
1948165,0.006466,-0.037576,1.02212,-3.8325,2.1,-4.6025,0.38192,0.11046,-0.53186,41.4877,-89.5063,181.229,13,1,33.38,1025.93,-112.217,0.0917969,0.123047,1.06445,1,1,1,1,0,-111.85,0.203972,0.111532,-111.942,8.05342
1948175,0.006466,-0.037576,1.02212,-3.8325,2.1,-4.6025,0.38192,0.11046,-0.53186,41.4877,-89.5063,181.229,13,1,33.38,1025.93,-112.217,0.0917969,0.123047,1.06445,1,1,1,1,0,-111.85,0.203972,0.111532,-111.942,8.05342
1948185,0.006466,-0.037576,1.02212,-3.8325,2.1,-4.6025,0.38192,0.11046,-0.53186,41.4877,-89.5063,181.229,13,1,33.38,1025.93,-112.217,0.0917969,0.123047,1.06445,1,1,1,1,0,-111.85,0.203972,0.111532,-111.942,8.05342
1948195,-0.013603,-0.024888,1.03419,-3.92,1.61875,-3.87625,0.378,0.1141,-0.5362,41.4877,-89.5063,181.229,13,1,33.38,1025.96,-112.48,0.0878906,0.107422,1.05664,1,1,1,1,0,-111.851,0.20609,0.0531276,-111.936,6.90293
1948205,-0.013603,-0.024888,1.03419,-3.92,1.61875,-3.87625,0.378,0.1141,-0.5362,41.4877,-89.5063,181.229,13,1,33.38,1025.96,-112.48,0.0878906,0.107422,1.05664,1,1,1,1,0,-111.851,0.20609,0.0531276,-111.936,6.90293
1948215,-0.019154,-0.009089,1.0262,-4.7775,3.465,13.0638,0.40978,0.19376,-0.52584,41.4877,-89.5063,181.229,13,1,33.38,1025.96,-112.48,0.0878906,0.111328,1.05664,1,1,1,1,0,-111.851,0.20609,0.0531276,-111.936,7.83105
1948225,-0.019154,-0.009089,1.0262,-4.7775,3.465,13.0638,0.40978,0.19376,-0.52584,41.4877,-89.5063,181.229,13,1,33.38,1025.96,-112.48,0.0878906,0.111328,1.05664,1,1,1,1,0,-111.851,0.20609,0.0531276,-111.936,7.83105
1948235,-0.019154,-0.009089,1.0262,-4.7775,3.465,13.0638,0.40978,0.19376,-0.52584,41.4877,-89.5063,181.229,13,1,33.38,1025.96,-112.48,0.0878906,0.111328,1.05664,1,1,1,1,0,-111.851,0.20609,0.0531276,-111.936,7.83105
1948245,-0.014579,-0.020984,1.02876,-5.71375,2.6775,10.5262,0.40194,0.17654,-0.5411,41.4877,-89.5063,181.229,13,1,33.38,1025.95,-112.393,0.0898438,0.117188,1.05859,1,1,1,1,0,-111.85,0.208024,0.0804269,-111.936,8.01475
1948255,-0.014579,-0.020984,1.02876,-5.71375,2.6775,10.5262,0.40194,0.17654,-0.5411,41.4877,-89.5063,181.229,13,1,33.38,1025.95,-112.393,0.0898438,0.117188,1.05859,1,1,1,1,0,-111.85,0.208024,0.0804269,-111.936,8.01475
1948265,-0.311527,-0.031354,1.05664,-2.0825,4.095,-16.8438,0.3801,0.11452,-0.51954,41.4877,-89.5063,181.229,13,1,33.38,1025.96,-112.48,0.0859375,0.113281,1.06055,1,1,1,1,0,-111.85,0.208024,0.0804269,-111.936,8.05342
1948275,-0.311527,-0.031354,1.05664,-2.0825,4.095,-16.8438,0.3801,0.11452,-0.51954,41.4877,-89.5063,181.229,13,1,33.38,1025.96,-112.48,0.0859375,0.113281,1.06055,1,1,1,1,0,-111.85,0.208024,0.0804269,-111.936,8.05342
1948285,-0.311527,-0.031354,1.05664,-2.0825,4.095,-16.8438,0.3801,0.11452,-0.51954,41.4877,-89.5063,181.229,13,1,33.38,1025.96,-112.48,0.0859375,0.113281,1.06055,1,1,1,1,0,-111.85,0.208024,0.0804269,-111.936,8.05342
1948295,-0.005612,-0.031049,1.02748,-6.1775,5.39875,8.8025,0.40768,0.17052,-0.53368,41.4877,-89.5063,181.229,13,1,33.38,1025.95,-112.393,0.0859375,0.103516,1.05664,1,1,1,1,0,-111.849,0.209179,0.03261,-111.935,8.05342
1948305,-0.005612,-0.031049,1.02748,-6.1775,5.39875,8.8025,0.40768,0.17052,-0.53368,41.4877,-89.5063,181.229,13,1,33.38,1025.95,-112.393,0.0859375,0.103516,1.05664,1,1,1,1,0,-111.849,0.209179,0.03261,-111.935,8.05342
1948315,-0.005612,-0.031049,1.02748,-6.1775,5.39875,8.8025,0.40768,0.17052,-0.53368,41.4877,-89.5063,181.229,13,1,33.38,1025.95,-112.393,0.0859375,0.103516,1.05664,1,1,1,1,0,-111.849,0.209179,0.03261,-111.935,8.05342
1948325,0.001708,-0.027389,1.0234,-2.485,3.63125,-12.3025,0.3668,0.10556,-0.51646,41.4877,-89.5063,181.229,13,1,33.39,1025.95,-112.396,0.0898438,0.0957031,1.05469,1,1,1,1,0,-111.849,0.209179,0.03261,-111.935,8.03408
1948335,0.001708,-0.027389,1.0234,-2.485,3.63125,-12.3025,0.3668,0.10556,-0.51646,41.4877,-89.5063,181.229,13,1,33.39,1025.95,-112.396,0.0898438,0.0957031,1.05469,1,1,1,1,0,-111.849,0.209179,0.03261,-111.935,8.03408
1948345,-0.011224,-0.024461,1.03987,-3.85,5.57375,-5.9325,0.39494,0.1113,-0.49518,41.4877,-89.5063,181.229,13,1,33.39,1025.96,-112.484,0.0917969,0.101562,1.05078,1,1,1,1,0,-111.85,0.209356,0.0441318,-111.933,8.03408
1948355,-0.011224,-0.024461,1.03987,-3.85,5.57375,-5.9325,0.39494,0.1113,-0.49518,41.4877,-89.5063,181.229,13,1,33.39,1025.96,-112.484,0.0917969,0.101562,1.05078,1,1,1,1,0,-111.85,0.209356,0.0441318,-111.933,8.03408
1948365,-0.011224,-0.024461,1.03987,-3.85,5.57375,-5.9325,0.39494,0.1113,-0.49518,41.4877,-89.5063,181.229,13,1,33.39,1025.96,-112.484,0.0917969,0.101562,1.05078,1,1,1,1,0,-111.85,0.209356,0.0441318,-111.933,8.03408
1948375,-0.033062,-0.025559,1.05072,-3.01,2.30125,-5.635,0.3955,0.1834,-0.5607,41.4877,-89.5063,181.236,13,1,33.39,1025.97,-112.57,0.0917969,0.103516,1.05664,1,1,1,1,0,-111.85,0.209356,0.0441318,-111.933,8.01475
1948385,-0.033062,-0.025559,1.05072,-3.01,2.30125,-5.635,0.3955,0.1834,-0.5607,41.4877,-89.5063,181.236,13,1,33.39,1025.97,-112.57,0.0917969,0.103516,1.05664,1,1,1,1,0,-111.85,0.209356,0.0441318,-111.933,8.01475
1948395,0.120719,-0.016287,1.0514,-4.025,2.5025,-6.13375,0.39844,0.13944,-0.53508,41.4877,-89.5063,181.236,13,1,33.39,1025.96,-112.484,0.0917969,0.103516,1.05664,1,1,1,1,0,-111.85,0.209356,0.0441318,-111.933,8.01475
1948405,0.120719,-0.016287,1.0514,-4.025,2.5025,-6.13375,0.39844,0.13944,-0.53508,41.4877,-89.5063,181.236,13,1,33.39,1025.96,-112.484,0.0917969,0.101562,1.05859,1,1,1,1,0,-111.849,0.210308,0.0454512,-111.935,8.00508
1948415,0.120719,-0.016287,1.0514,-4.025,2.5025,-6.13375,0.39844,0.13944,-0.53508,41.4877,-89.5063,181.236,13,1,33.39,1025.96,-112.484,0.0917969,0.101562,1.05859,1,1,1,1,0,-111.849,0.210308,0.0454512,-111.935,8.00508
1948425,-0.089731,-0.022326,1.0714,-3.82375,1.89,-5.17125,0.39704,0.10948,-0.51562,41.4877,-89.5063,181.236,13,1,33.39,1025.95,-112.396,0.0878906,0.09375,1.05664,1,1,1,1,0,-111.849,0.210308,0.0454512,-111.935,8.04375
1948435,-0.089731,-0.022326,1.0714,-3.82375,1.89,-5.17125,0.39704,0.10948,-0.51562,41.4877,-89.5063,181.236,13,1,33.39,1025.95,-112.396,0.0878906,0.09375,1.05664,1,1,1,1,0,-111.849,0.210308,0.0454512,-111.935,8.04375
1948445,-0.089731,-0.022326,1.0714,-3.82375,1.89,-5.17125,0.39704,0.10948,-0.51562,41.4877,-89.5063,181.236,13,1,33.39,1025.95,-112.396,0.0878906,0.09375,1.05664,1,1,1,1,0,-111.849,0.210308,0.0454512,-111.935,8.04375
1948455,0.008296,-0.026291,1.03596,-3.7275,1.61,-3.96375,0.3976,0.10654,-0.51296,41.4877,-89.5063,181.236,13,1,33.39,1025.96,-112.484,0.0898438,0.0917969,1.05859,1,1,1,1,0,-111.845,0.209865,0.0107192,-111.933,8.04375
1948465,0.008296,-0.026291,1.03596,-3.7275,1.61,-3.96375,0.3976,0.10654,-0.51296,41.4877,-89.5063,181.236,13,1,33.39,1025.96,-112.484,0.0898438,0.0917969,1.05859,1,1,1,1,0,-111.845,0.209865,0.0107192,-111.933,8.04375
1948475,0.009516,-0.030378,1.06866,-4.0425,1.2775,-7.175,0.40138,0.1092,-0.50624,41.4877,-89.5063,181.236,13,1,33.39,1025.96,-112.484,0.0898438,0.101562,1.05273,1,1,1,1,0,-111.845,0.209865,0.0107192,-111.933,8.05342
1948485,0.009516,-0.030378,1.06866,-4.0425,1.2775,-7.175,0.40138,0.1092,-0.50624,41.4877,-89.5063,181.236,13,1,33.39,1025.96,-112.484,0.0898438,0.101562,1.05273,1,1,1,1,0,-111.845,0.209865,0.0107192,-111.933,8.05342
1948495,0.009516,-0.030378,1.06866,-4.0425,1.2775,-7.175,0.40138,0.1092,-0.50624,41.4877,-89.5063,181.236,13,1,33.39,1025.96,-112.484,0.0898438,0.101562,1.05273,1,1,1,1,0,-111.845,0.209865,0.0107192,-111.933,8.05342
1948505,-0.030439,-0.017446,1.02425,-4.3925,-3.2375,3.28125,0.37758,0.11494,-0.5754,41.4877,-89.5063,181.236,13,1,33.37,1025.97,-112.563,0.0898438,0.101562,1.05273,1,1,1,1,0,-111.845,0.209865,0.0107192,-111.933,8.04375
1948515,-0.030439,-0.017446,1.02425,-4.3925,-3.2375,3.28125,0.37758,0.11494,-0.5754,41.4877,-89.5063,181.236,13,1,33.37,1025.97,-112.563,0.0898438,0.101562,1.05273,1,1,1,1,0,-111.845,0.209865,0.0107192,-111.933,8.04375
1948525,-0.030439,-0.017446,1.02425,-4.3925,-3.2375,3.28125,0.37758,0.11494,-0.5754,41.4877,-89.5063,181.236,13,1,33.37,1025.97,-112.563,0.0898438,0.101562,1.05273,1,1,1,1,0,-111.843,0.207919,-0.00921728,-111.929,8.04375
1948535,-0.030439,-0.017446,1.02425,-4.3925,-3.2375,3.28125,0.37758,0.11494,-0.5754,41.4877,-89.5063,181.236,13,1,33.37,1025.97,-112.563,0.0898438,0.101562,1.05273,1,1,1,1,0,-111.843,0.207919,-0.00921728,-111.929,8.04375
1948545,0.014701,-0.022143,1.05597,-0.97125,0.5425,-21.77,0.40824,0.18032,-0.52584,41.4877,-89.5063,181.236,13,1,33.37,1025.95,-112.389,0.0898438,0.0976562,1.05078,1,1,1,1,0,-111.843,0.207919,-0.00921728,-111.929,8.05342
1948555,0.014701,-0.022143,1.05597,-0.97125,0.5425,-21.77,0.40824,0.18032,-0.52584,41.4877,-89.5063,181.236,13,1,33.37,1025.95,-112.389,0.0898438,0.0976562,1.05078,1,1,1,1,0,-111.843,0.207919,-0.00921728,-111.929,8.05342
1948565,0.248392,-0.921466,1.9986,-1.6275,-0.28,-11.6988,0.3997,0.14196,-0.5404,41.4877,-89.5063,181.224,13,1,33.38,1026.01,-112.917,0.0898438,0.0917969,1.09961,1,1,1,1,0,-111.843,0.207919,-0.00921728,-111.929,8.07275
1948575,0.248392,-0.921466,1.9986,-1.6275,-0.28,-11.6988,0.3997,0.14196,-0.5404,41.4877,-89.5063,181.224,13,1,33.38,1026.01,-112.917,0.0898438,0.0917969,1.09961,1,1,1,1,0,-111.836,2.48238,70.4669,-111.928,8.07275
1948585,0.248392,-0.921466,1.9986,-1.6275,-0.28,-11.6988,0.3997,0.14196,-0.5404,41.4877,-89.5063,181.224,13,1,33.38,1026.01,-112.917,0.0898438,0.0917969,1.09961,1,1,1,1,0,-111.836,2.48238,70.4669,-111.928,8.07275
1948595,-0.206668,0.762256,1.9986,-6.50125,5.215,17.0362,0.37954,0.12684,-0.53382,41.4877,-89.5063,181.224,13,1,33.38,1026.3,-115.45,-0.300781,0.232422,9.19141,1,1,1,1,0,-111.836,2.48238,70.4669,-111.928,8.05342
1948605,-0.206668,0.762256,1.9986,-6.50125,5.215,17.0362,0.37954,0.12684,-0.53382,41.4877,-89.5063,181.224,13,1,33.38,1026.3,-115.45,-0.300781,0.232422,9.19141,1,1,1,1,0,-111.836,2.48238,70.4669,-111.928,8.05342
1948615,-0.206668,0.762256,1.9986,-6.50125,5.215,17.0362,0.37954,0.12684,-0.53382,41.4877,-89.5063,181.224,13,1,33.38,1026.3,-115.45,-0.300781,0.232422,9.19141,1,1,1,1,0,-111.836,2.48238,70.4669,-111.928,8.05342
1948625,1.01223,-1.4177,1.9986,-5.04,-2.49375,5.32875,0.40432,0.20664,-0.53032,41.4877,-89.5063,181.224,13,1,33.38,1026.23,-114.839,-0.4375,-0.253906,12.0195,2,2,2,2,0,-111.58,7.5485,113.276,-111.239,8.07275
1948635,1.01223,-1.4177,1.9986,-5.04,-2.49375,5.32875,0.40432,0.20664,-0.53032,41.4877,-89.5063,181.224,13,1,33.38,1026.23,-114.839,-0.4375,-0.253906,12.0195,2,2,2,2,0,-111.58,7.5485,113.276,-111.239,8.07275
1948645,-0.332389,1.84458,1.9986,-3.57875,-1.05,-4.2175,0.39956,0.1281,-0.532,41.4877,-89.5063,181.224,13,1,33.38,1025.86,-111.606,0.412109,-0.265625,13.1699,2,2,2,2,0,-111.58,7.5485,113.276,-111.239,8.07275
1948655,-0.332389,1.84458,1.9986,-3.57875,-1.05,-4.2175,0.39956,0.1281,-0.532,41.4877,-89.5063,181.224,13,1,33.38,1025.86,-111.606,0.412109,-0.265625,13.1699,2,2,2,2,0,-111.58,7.5485,113.276,-111.239,8.07275
1948665,-0.332389,1.84458,1.9986,-3.57875,-1.05,-4.2175,0.39956,0.1281,-0.532,41.4877,-89.5063,181.224,13,1,33.38,1025.86,-111.606,0.412109,-0.265625,13.1699,2,2,2,2,0,-111.58,7.5485,113.276,-111.239,8.07275
1948675,-0.211548,1.9986,1.9986,-3.78875,1.07625,-4.06875,0.38682,0.13888,-0.539,41.4877,-89.5063,181.224,13,1,33.39,1025.77,-110.823,-0.935547,-0.132812,14.2422,2,2,2,2,0,-110.996,14.116,130.139,-107.878,8.04375
1948685,-0.211548,1.9986,1.9986,-3.78875,1.07625,-4.06875,0.38682,0.13888,-0.539,41.4877,-89.5063,181.224,13,1,33.39,1025.77,-110.823,-0.935547,-0.132812,14.2422,2,2,2,2,0,-110.996,14.116,130.139,-107.878,8.04375
1948695,1.52,0.176168,1.9986,-4.0425,2.23125,-3.68375,0.39662,0.13412,-0.57722,41.4877,-89.5063,181.224,13,1,33.39,1025.66,-109.861,-0.935547,-0.132812,14.2422,2,2,2,2,0,-110.996,14.116,130.139,-107.878,8.04375
1948705,1.52,0.176168,1.9986,-4.0425,2.23125,-3.68375,0.39662,0.13412,-0.57722,41.4877,-89.5063,181.224,13,1,33.39,1025.66,-109.861,-1.36523,0.107422,14.5391,2,2,2,2,0,-110.996,14.116,130.139,-107.878,8.04375
1948715,1.52,0.176168,1.9986,-4.0425,2.23125,-3.68375,0.39662,0.13412,-0.57722,41.4877,-89.5063,181.224,13,1,33.39,1025.66,-109.861,-1.36523,0.107422,14.5391,2,2,2,2,0,-110.996,14.116,130.139,-107.878,8.04375
1948725,-0.654896,-1.88435,1.9986,-3.56125,2.1875,-7.07875,0.37786,0.15008,-0.5572,41.4877,-89.5063,181.224,13,1,33.39,1025.68,-110.035,-1.69141,-0.605469,14.8184,2,2,2,2,0,-110.005,21.2433,136.713,-99.4021,8.05342
1948735,-0.654896,-1.88435,1.9986,-3.56125,2.1875,-7.07875,0.37786,0.15008,-0.5572,41.4877,-89.5063,181.224,13,1,33.39,1025.68,-110.035,-1.69141,-0.605469,14.8184,2,2,2,2,0,-110.005,21.2433,136.713,-99.4021,8.05342
1948745,-0.654896,-1.88435,1.9986,-3.56125,2.1875,-7.07875,0.37786,0.15008,-0.5572,41.4877,-89.5063,181.224,13,1,33.39,1025.68,-110.035,-1.69141,-0.605469,14.8184,2,2,2,2,0,-110.005,21.2433,136.713,-99.4021,8.05342
1948755,-0.707905,-0.900787,1.9986,-2.905,2.35375,-9.14375,0.35882,0.16212,-0.56336,41.4877,-89.5063,181.224,13,1,33.39,1025.25,-106.275,1.05859,0.185547,15.0742,2,2,2,2,0,-110.005,21.2433,136.713,-99.4021,8.00508
1948765,-0.707905,-0.900787,1.9986,-2.905,2.35375,-9.14375,0.35882,0.16212,-0.56336,41.4877,-89.5063,181.224,13,1,33.39,1025.25,-106.275,1.05859,0.185547,15.0742,2,2,2,2,0,-110.005,21.2433,136.713,-99.4021,8.00508
1948775,0.353312,-0.127368,1.9986,-3.1675,-4.655,-0.60375,0.34132,0.17892,-0.5558,41.4877,-89.5063,181.238,13,1,33.39,1025.61,-109.424,2.14258,0.876953,15.0977,2,2,2,2,0,-108.725,28.4729,140.409,-85.003,8.05342
1948785,0.353312,-0.127368,1.9986,-3.1675,-4.655,-0.60375,0.34132,0.17892,-0.5558,41.4877,-89.5063,181.238,13,1,33.39,1025.61,-109.424,2.14258,0.876953,15.0977,2,2,2,2,0,-108.725,28.4729,140.409,-85.003,8.05342
1948795,0.353312,-0.127368,1.9986,-3.1675,-4.655,-0.60375,0.34132,0.17892,-0.5558,41.4877,-89.5063,181.238,13,1,33.39,1025.61,-109.424,2.14258,0.876953,15.0977,2,2,2,2,0,-108.725,28.4729,140.409,-85.003,8.05342
1948805,0.036234,0.862784,1.9986,-3.045,-3.15,-6.7025,0.3262,0.17682,-0.55664,41.4877,-89.5063,181.238,13,1,33.39,1025.57,-109.073,-1.12109,-0.71875,15.4141,2,2,2,2,0,-108.725,28.4729,140.409,-85.003,8.04375
1948815,0.036234,0.862784,1.9986,-3.045,-3.15,-6.7025,0.3262,0.17682,-0.55664,41.4877,-89.5063,181.238,13,1,33.39,1025.57,-109.073,-1.12109,-0.71875,15.4141,2,2,2,2,0,-108.725,28.4729,140.409,-85.003,8.04375
1948825,0.036234,0.862784,1.9986,-3.045,-3.15,-6.7025,0.3262,0.17682,-0.55664,41.4877,-89.5063,181.238,13,1,33.39,1025.3,-106.713,-1.12109,-0.71875,15.4141,2,2,2,2,0,-108.725,28.4729,140.409,-85.003,8.04375
1948835,-0.052521,-1.9986,1.9986,-4.4975,5.6875,-2.2575,0.30338,0.19586,-0.55412,41.4877,-89.5063,181.238,13,1,33.39,1025.3,-106.713,-2.16211,-0.785156,15.5273,2,2,2,2,0,-107.036,35.9559,141.686,-64.7441,8.02441
1948845,-0.052521,-1.9986,1.9986,-4.4975,5.6875,-2.2575,0.30338,0.19586,-0.55412,41.4877,-89.5063,181.238,13,1,33.39,1025.3,-106.713,-2.16211,-0.785156,15.5273,2,2,2,2,0,-107.036,35.9559,141.686,-64.7441,8.02441
1948855,-0.358924,-1.40221,1.9986,-5.22375,5.27625,2.23125,0.27538,0.21098,-0.55174,41.4877,-89.5063,181.238,13,1,33.39,1025.38,-107.413,-0.320312,0.78125,15.5117,2,2,2,2,0,-107.036,35.9559,141.686,-64.7441,8.04375
1948865,-0.358924,-1.40221,1.9986,-5.22375,5.27625,2.23125,0.27538,0.21098,-0.55174,41.4877,-89.5063,181.238,13,1,33.39,1025.38,-107.413,-0.320312,0.78125,15.5117,2,2,2,2,0,-107.036,35.9559,141.686,-64.7441,8.04375
1948875,-0.358924,-1.40221,1.9986,-5.22375,5.27625,2.23125,0.27538,0.21098,-0.55174,41.4877,-89.5063,181.238,13,1,33.39,1025.38,-107.413,-0.320312,0.78125,15.5117,2,2,2,2,0,-107.036,35.9559,141.686,-64.7441,8.04375
1948885,0.12261,1.35664,1.9986,-3.6575,-3.94625,2.5025,0.2653,0.20846,-0.5502,41.4877,-89.5063,181.238,13,1,33.4,1025.31,-106.804,-0.925781,-0.988281,15.752,3,3,3,3,0,-104.43,45.2604,143.963,-38.1885,8.05342
1948895,0.12261,1.35664,1.9986,-3.6575,-3.94625,2.5025,0.2653,0.20846,-0.5502,41.4877,-89.5063,181.238,13,1,33.4,1025.31,-106.804,-0.925781,-0.988281,15.752,3,3,3,3,0,-104.43,45.2604,143.963,-38.1885,8.05342
1948905,-0.285846,-1.6944,1.9986,-5.39,0.72625,6.1075,0.2352,0.224,-0.5621,41.4877,-89.5063,181.238,13,1,33.38,1024.8,-102.335,-0.925781,-0.988281,15.752,3,3,3,3,0,-104.43,45.2604,143.963,-38.1885,8.05342
1948915,-0.285846,-1.6944,1.9986,-5.39,0.72625,6.1075,0.2352,0.224,-0.5621,41.4877,-89.5063,181.238,13,1,33.38,1024.8,-102.335,-0.925781,-0.988281,15.752,3,3,3,3,0,-104.43,45.2604,143.963,-38.1885,8.05342
1948925,-0.285846,-1.6944,1.9986,-5.39,0.72625,6.1075,0.2352,0.224,-0.5621,41.4877,-89.5063,181.238,13,1,33.38,1024.8,-102.335,-0.662109,0.226562,15.7246,3,3,3,3,0,-104.43,45.2604,143.963,-38.1885,8.05342
1948935,-0.285846,-1.6944,1.9986,-5.39,0.72625,6.1075,0.2352,0.224,-0.5621,41.4877,-89.5063,181.238,13,1,33.38,1024.8,-102.335,-0.662109,0.226562,15.7246,3,3,3,3,0,-104.43,45.2604,143.963,-38.1885,8.05342
1948945,0.964471,0.516304,1.9986,-4.36625,2.72125,-1.07625,0.22638,0.21994,-0.5684,41.4877,-89.5063,181.238,13,1,33.38,1025.05,-104.522,0.537109,1.36719,15.6719,3,3,3,3,0,-101.845,52.8905,143.992,3.10188,8.07275
1948955,0.964471,0.516304,1.9986,-4.36625,2.72125,-1.07625,0.22638,0.21994,-0.5684,41.4877,-89.5063,181.238,13,1,33.38,1025.05,-104.522,0.537109,1.36719,15.6719,3,3,3,3,0,-101.845,52.8905,143.992,3.10188,8.07275
1948965,0.964471,0.516304,1.9986,-4.36625,2.72125,-1.07625,0.22638,0.21994,-0.5684,41.4877,-89.5063,181.238,13,1,33.38,1025.05,-104.522,0.537109,1.36719,15.6719,3,3,3,3,0,-101.845,52.8905,143.992,3.10188,8.07275
1948975,0.726937,0.845216,1.9986,-3.80625,1.98625,-6.37,0.21672,0.2177,-0.55958,41.4877,-89.5063,181.319,12,1,33.38,1024.78,-102.161,0.720703,0.464844,15.7305,3,3,3,3,0,-101.845,52.8905,143.992,3.10188,8.08242
1948985,0.726937,0.845216,1.9986,-3.80625,1.98625,-6.37,0.21672,0.2177,-0.55958,41.4877,-89.5063,181.319,12,1,33.38,1024.78,-102.161,0.720703,0.464844,15.7305,3,3,3,3,0,-101.845,52.8905,143.992,3.10188,8.08242
1948995,-0.873642,-1.99256,1.9986,-3.64,2.58125,-5.74875,0.19628,0.21252,-0.55986,41.4877,-89.5063,181.319,12,1,33.38,1024.45,-99.2717,0.720703,0.464844,15.7305,3,3,3,3,0,-101.845,52.8905,143.992,3.10188,8.08242
1949005,-0.873642,-1.99256,1.9986,-3.64,2.58125,-5.74875,0.19628,0.21252,-0.55986,41.4877,-89.5063,181.319,12,1,33.38,1024.45,-99.2717,-0.474609,0.0722656,15.8359,3,3,3,3,0,-98.72,60.8448,144.916,43.5772,8.06309
1949015,-0.873642,-1.99256,1.9986,-3.64,2.58125,-5.74875,0.19628,0.21252,-0.55986,41.4877,-89.5063,181.319,12,1,33.38,1024.45,-99.2717,-0.474609,0.0722656,15.8359,3,3,3,3,0,-98.72,60.8448,144.916,43.5772,8.06309
1949025,1.13064,-0.520818,1.9986,-4.97,2.89625,2.66875,0.18494,0.21322,-0.5663,41.4877,-89.5063,181.319,12,1,33.38,1024.27,-97.6974,-0.474609,0.0722656,15.8359,3,3,3,3,0,-98.72,60.8448,144.916,43.5772,8.07275
1949035,1.13064,-0.520818,1.9986,-4.97,2.89625,2.66875,0.18494,0.21322,-0.5663,41.4877,-89.5063,181.319,12,1,33.38,1024.27,-97.6974,0.0273438,1.11914,15.8105,3,3,3,3,0,-98.72,60.8448,144.916,43.5772,8.07275
1949045,1.13064,-0.520818,1.9986,-4.97,2.89625,2.66875,0.18494,0.21322,-0.5663,41.4877,-89.5063,181.319,12,1,33.38,1024.27,-97.6974,0.0273438,1.11914,15.8105,3,3,3,3,0,-98.72,60.8448,144.916,43.5772,8.07275
1949055,0.116022,0.680028,1.9986,-3.92,-4.0425,0.30625,0.17668,0.20384,-0.56112,41.4877,-89.5063,181.319,12,1,33.39,1024.06,-95.8604,0.480469,0.537109,15.8105,3,3,3,3,0,-95.4239,68.2583,145.575,91.8022,8.06309
1949065,0.116022,0.680028,1.9986,-3.92,-4.0425,0.30625,0.17668,0.20384,-0.56112,41.4877,-89.5063,181.319,12,1,33.39,1024.06,-95.8604,0.480469,0.537109,15.8105,3,3,3,3,0,-95.4239,68.2583,145.575,91.8022,8.06309
1949075,-0.445788,-0.896456,1.9986,-3.8675,7.95375,-8.995,0.1617,0.19418,-0.56434,41.4877,-89.5063,181.319,12,1,33.39,1023.96,-94.9846,-0.205078,0.105469,15.9004,3,3,3,3,0,-95.4239,68.2583,145.575,91.8022,8.06309
1949085,-0.445788,-0.896456,1.9986,-3.8675,7.95375,-8.995,0.1617,0.19418,-0.56434,41.4877,-89.5063,181.319,12,1,33.39,1023.96,-94.9846,-0.205078,0.105469,15.9004,3,3,3,3,0,-95.4239,68.2583,145.575,91.8022,8.06309
1949095,-0.445788,-0.896456,1.9986,-3.8675,7.95375,-8.995,0.1617,0.19418,-0.56434,41.4877,-89.5063,181.319,12,1,33.39,1023.96,-94.9846,-0.205078,0.105469,15.9004,3,3,3,3,0,-95.4239,68.2583,145.575,91.8022,8.06309
1949105,1.96914,-0.519964,1.9986,-5.18875,3.36875,9.66875,0.16072,0.18368,-0.56518,41.4877,-89.5063,181.319,12,1,33.39,1023.76,-93.2328,-0.0839844,0.916016,15.8848,3,3,3,3,0,-91.605,75.9811,145.755,142.302,8.04375
1949115,1.96914,-0.519964,1.9986,-5.18875,3.36875,9.66875,0.16072,0.18368,-0.56518,41.4877,-89.5063,181.319,12,1,33.39,1023.76,-93.2328,-0.0839844,0.916016,15.8848,3,3,3,3,0,-91.605,75.9811,145.755,142.302,8.04375
1949125,1.96914,-0.519964,1.9986,-5.18875,3.36875,9.66875,0.16072,0.18368,-0.56518,41.4877,-89.5063,181.319,12,1,33.39,1023.76,-93.2328,-0.0839844,0.916016,15.8848,3,3,3,3,0,-91.605,75.9811,145.755,142.302,8.04375
1949135,-0.054473,0.353068,1.9986,-3.8325,-2.59,-4.15625,0.14014,0.16744,-0.55328,41.4877,-89.5063,181.319,12,1,33.39,1023.52,-91.1304,0.261719,-0.279297,15.9121,3,3,3,3,0,-91.605,75.9811,145.755,142.302,8.05342
1949145,-0.054473,0.353068,1.9986,-3.8325,-2.59,-4.15625,0.14014,0.16744,-0.55328,41.4877,-89.5063,181.319,12,1,33.39,1023.52,-91.1304,0.261719,-0.279297,15.9121,3,3,3,3,0,-91.605,75.9811,145.755,142.302,8.05342
1949155,-0.497089,-0.75945,1.9986,-4.8825,6.125,-4.08625,0.13524,0.15932,-0.55762,41.4877,-89.5063,181.319,12,1,33.39,1023.42,-90.2553,-0.0371094,0.123047,15.9297,3,3,3,3,0,-87.4127,83.7051,145.86,200.232,8.06309
1949165,-0.497089,-0.75945,1.9986,-4.8825,6.125,-4.08625,0.13524,0.15932,-0.55762,41.4877,-89.5063,181.319,12,1,33.39,1023.42,-90.2553,-0.0371094,0.123047,15.9297,3,3,3,3,0,-87.4127,83.7051,145.86,200.232,8.06309
1949175,-0.497089,-0.75945,1.9986,-4.8825,6.125,-4.08625,0.13524,0.15932,-0.55762,41.4877,-89.5063,181.319,12,1,33.39,1023.42,-90.2553,-0.0371094,0.123047,15.9297,3,3,3,3,0,-87.4127,83.7051,145.86,200.232,8.06309
1949185,0.928908,-1.07909,1.9986,-4.0425,0.41125,-3.9375,0.13202,0.1498,-0.55076,41.4877,-89.5063,181.433,11,1,33.39,1023.28,-89.0275,-0.148438,0.742188,15.9219,3,3,3,3,0,-87.4127,83.7051,145.86,200.232,8.04375
1949195,0.928908,-1.07909,1.9986,-4.0425,0.41125,-3.9375,0.13202,0.1498,-0.55076,41.4877,-89.5063,181.433,11,1,33.39,1023.28,-89.0275,-0.148438,0.742188,15.9219,3,3,3,3,0,-87.4127,83.7051,145.86,200.232,8.04375
1949205,0.335866,-0.318359,1.9986,-3.605,2.98375,-5.88,0.12908,0.13636,-0.5572,41.4877,-89.5063,181.433,11,1,33.39,1022.9,-85.697,0.230469,-0.123047,15.9355,3,3,3,3,0,-82.813,91.4381,146.076,263.686,8.02441
1949215,0.335866,-0.318359,1.9986,-3.605,2.98375,-5.88,0.12908,0.13636,-0.5572,41.4877,-89.5063,181.433,11,1,33.39,1022.9,-85.697,0.230469,-0.123047,15.9355,3,3,3,3,0,-82.813,91.4381,146.076,263.686,8.02441
1949225,0.335866,-0.318359,1.9986,-3.605,2.98375,-5.88,0.12908,0.13636,-0.5572,41.4877,-89.5063,181.433,11,1,33.39,1022.9,-85.697,0.230469,-0.123047,15.9355,3,3,3,3,0,-82.813,91.4381,146.076,263.686,8.02441
1949235,-0.496296,-0.174826,1.9986,-3.43,1.6625,-8.4175,0.12782,0.12712,-0.5628,41.4877,-89.5063,181.433,11,1,33.4,1022.77,-84.5604,0.0273438,0.189453,15.9453,3,3,3,3,0,-82.813,91.4381,146.076,263.686,8.01475
1949245,-0.496296,-0.174826,1.9986,-3.43,1.6625,-8.4175,0.12782,0.12712,-0.5628,41.4877,-89.5063,181.433,11,1,33.4,1022.77,-84.5604,0.0273438,0.189453,15.9453,3,3,3,3,0,-82.813,91.4381,146.076,263.686,8.01475
1949255,-0.496296,-0.174826,1.9986,-3.43,1.6625,-8.4175,0.12782,0.12712,-0.5628,41.4877,-89.5063,181.433,11,1,33.4,1022.77,-84.5604,0.0273438,0.189453,15.9453,3,3,3,3,0,-82.813,91.4381,146.076,263.686,8.01475
1949265,1.06579,-0.865163,1.9986,-3.66625,1.61875,-5.0925,0.13174,0.11774,-0.55664,41.4877,-89.5063,181.433,11,1,33.4,1022.56,-82.7186,-0.0957031,0.539062,15.9375,3,3,3,3,0,-76.2039,101.661,146.24,332.165,8.04375
1949275,1.06579,-0.865163,1.9986,-3.66625,1.61875,-5.0925,0.13174,0.11774,-0.55664,41.4877,-89.5063,181.433,11,1,33.4,1022.56,-82.7186,-0.0957031,0.539062,15.9375,3,3,3,3,0,-76.2039,101.661,146.24,332.165,8.04375
1949285,0.224053,-0.263642,1.9986,-4.9525,3.325,-2.30125,0.1316,0.10542,-0.56322,41.4877,-89.5063,181.433,11,1,33.4,1022.13,-78.9469,0.0390625,0.244141,15.9609,3,3,3,3,0,-76.2039,101.661,146.24,332.165,8.04375
1949295,0.224053,-0.263642,1.9986,-4.9525,3.325,-2.30125,0.1316,0.10542,-0.56322,41.4877,-89.5063,181.433,11,1,33.4,1022.13,-78.9469,0.0390625,0.244141,15.9609,3,3,3,3,0,-76.2039,101.661,146.24,332.165,8.04375
1949305,0.224053,-0.263642,1.9986,-4.9525,3.325,-2.30125,0.1316,0.10542,-0.56322,41.4877,-89.5063,181.433,11,1,33.4,1022.13,-78.9469,0.0390625,0.244141,15.9609,3,3,3,3,0,-76.2039,101.661,146.24,332.165,8.04375
1949315,0.099796,-0.400343,1.9986,-5.85375,4.31375,4.68125,0.15134,0.09632,-0.58772,41.4877,-89.5063,181.433,11,1,33.38,1021.75,-75.6077,0.0390625,0.244141,15.9609,3,3,3,3,0,-76.2039,101.661,146.24,332.165,8.03408
1949325,0.099796,-0.400343,1.9986,-5.85375,4.31375,4.68125,0.15134,0.09632,-0.58772,41.4877,-89.5063,181.433,11,1,33.38,1021.75,-75.6077,0.0390625,0.244141,15.9609,3,3,3,3,0,-76.2039,101.661,146.24,332.165,8.03408
1949335,0.099796,-0.400343,1.9986,-5.85375,4.31375,4.68125,0.15134,0.09632,-0.58772,41.4877,-89.5063,181.433,11,1,33.38,1021.75,-75.6077,-0.113281,0.482422,15.9805,3,3,3,3,0,-70.8528,109.116,146.272,430.481,8.03408
1949345,0.099796,-0.400343,1.9986,-5.85375,4.31375,4.68125,0.15134,0.09632,-0.58772,41.4877,-89.5063,181.433,11,1,33.38,1021.75,-75.6077,-0.113281,0.482422,15.9805,3,3,3,3,0,-70.8528,109.116,146.272,430.481,8.03408
1949355,-0.130418,-0.135908,1.9986,-2.28375,2.52,-12.5125,0.15288,0.09072,-0.5943,41.4877,-89.5063,181.433,11,1,33.38,1021.34,-72.0082,0.0410156,0.355469,15.9629,3,3,3,3,0,-70.8528,109.116,146.272,430.481,8.07275
1949365,-0.130418,-0.135908,1.9986,-2.28375,2.52,-12.5125,0.15288,0.09072,-0.5943,41.4877,-89.5063,181.433,11,1,33.38,1021.34,-72.0082,0.0410156,0.355469,15.9629,3,3,3,3,0,-70.8528,109.116,146.272,430.481,8.07275
1949375,-0.23241,0.34465,1.9986,-5.81,3.26375,4.935,0.1617,0.07728,-0.59822,41.4877,-89.5063,181.594,10,1,33.38,1021.02,-69.1987,0.228516,0.167969,15.9531,3,3,3,3,0,-70.8528,109.116,146.272,430.481,8.07275
1949385,-0.23241,0.34465,1.9986,-5.81,3.26375,4.935,0.1617,0.07728,-0.59822,41.4877,-89.5063,181.594,10,1,33.38,1021.02,-69.1987,0.228516,0.167969,15.9531,3,3,3,3,0,-65.0903,116.581,146.377,507.514,8.07275
1949395,-0.23241,0.34465,1.9986,-5.81,3.26375,4.935,0.1617,0.07728,-0.59822,41.4877,-89.5063,181.594,10,1,33.38,1021.02,-69.1987,0.228516,0.167969,15.9531,3,3,3,3,0,-65.0903,116.581,146.377,507.514,8.07275
1949405,0.084912,-0.665937,1.9986,-5.83625,1.9775,8.085,0.16702,0.0665,-0.59948,41.4877,-89.5063,181.594,10,1,33.38,1020.48,-64.4548,-0.046875,0.417969,15.9746,3,3,3,3,0,-65.0903,116.581,146.377,507.514,8.04375
1949415,0.084912,-0.665937,1.9986,-5.83625,1.9775,8.085,0.16702,0.0665,-0.59948,41.4877,-89.5063,181.594,10,1,33.38,1020.48,-64.4548,-0.046875,0.417969,15.9746,3,3,3,3,0,-65.0903,116.581,146.377,507.514,8.04375
1949425,0.084912,-0.665937,1.9986,-5.83625,1.9775,8.085,0.16702,0.0665,-0.59948,41.4877,-89.5063,181.594,10,1,33.38,1020.48,-64.4548,-0.046875,0.417969,15.9746,3,3,3,3,0,-65.0903,116.581,146.377,507.514,8.04375
1949435,0.073627,-0.460672,1.9986,-2.52,2.2575,-14.6388,0.1673,0.05516,-0.60508,41.4877,-89.5063,181.594,10,1,33.39,1019.98,-60.0618,0.0800781,0.308594,15.9941,3,3,3,3,0,-58.665,124.368,146.95,588.821,8.07275
1949445,0.073627,-0.460672,1.9986,-2.52,2.2575,-14.6388,0.1673,0.05516,-0.60508,41.4877,-89.5063,181.594,10,1,33.39,1019.98,-60.0618,0.0800781,0.308594,15.9941,3,3,3,3,0,-58.665,124.368,146.95,588.821,8.07275
1949455,-0.24217,0.201605,1.9986,-4.7075,3.10625,-3.31625,0.1722,0.04438,-0.60844,41.4877,-89.5063,181.594,10,1,33.39,1019.48,-55.6646,0.0722656,0.320312,16.0391,3,3,3,3,0,-58.665,124.368,146.95,588.821,8.05342
1949465,-0.24217,0.201605,1.9986,-4.7075,3.10625,-3.31625,0.1722,0.04438,-0.60844,41.4877,-89.5063,181.594,10,1,33.39,1019.48,-55.6646,0.0722656,0.320312,16.0391,3,3,3,3,0,-58.665,124.368,146.95,588.821,8.05342
1949475,-0.24217,0.201605,1.9986,-4.7075,3.10625,-3.31625,0.1722,0.04438,-0.60844,41.4877,-89.5063,181.594,10,1,33.39,1019.48,-55.6646,0.0722656,0.320312,16.0391,3,3,3,3,0,-58.665,124.368,146.95,588.821,8.05342
1949485,0.028792,-0.366,1.9986,-4.025,2.30125,-4.62,0.18228,0.03248,-0.60578,41.4877,-89.5063,181.594,10,1,33.39,1018.89,-50.4733,-0.0644531,0.394531,16.0645,3,3,3,3,0,-51.7161,132.203,147.491,677.858,8.05342
1949495,0.028792,-0.366,1.9986,-4.025,2.30125,-4.62,0.18228,0.03248,-0.60578,41.4877,-89.5063,181.594,10,1,33.39,1018.89,-50.4733,-0.0644531,0.394531,16.0645,3,3,3,3,0,-51.7161,132.203,147.491,677.858,8.05342
1949505,0.118218,0.030744,1.9986,-4.025,2.45875,-5.3725,0.1911,0.0217,-0.60508,41.4877,-89.5063,181.594,10,1,33.39,1017.97,-42.3726,-0.0644531,0.394531,16.0645,3,3,3,3,0,-51.7161,132.203,147.491,677.858,8.05342
1949515,0.118218,0.030744,1.9986,-4.025,2.45875,-5.3725,0.1911,0.0217,-0.60508,41.4877,-89.5063,181.594,10,1,33.39,1017.97,-42.3726,0.0253906,0.359375,16.0938,3,3,3,3,0,-51.7161,132.203,147.491,677.858,8.06309
1949525,0.118218,0.030744,1.9986,-4.025,2.45875,-5.3725,0.1911,0.0217,-0.60508,41.4877,-89.5063,181.594,10,1,33.39,1017.97,-42.3726,0.0253906,0.359375,16.0938,3,3,3,3,0,-51.7161,132.203,147.491,677.858,8.06309
1949535,-0.108336,0.159637,1.9986,-3.64875,2.70375,-4.9525,0.18732,-0.00476,-0.59346,41.4877,-89.5063,181.594,10,1,33.39,1017.39,-37.262,-0.0703125,0.339844,16.1406,3,3,3,3,0,-44.2784,140.082,148.13,771.676,8.06309
1949545,-0.108336,0.159637,1.9986,-3.64875,2.70375,-4.9525,0.18732,-0.00476,-0.59346,41.4877,-89.5063,181.594,10,1,33.39,1017.39,-37.262,-0.0703125,0.339844,16.1406,3,3,3,3,0,-44.2784,140.082,148.13,771.676,8.06309
1949555,-0.108336,0.159637,1.9986,-3.64875,2.70375,-4.9525,0.18732,-0.00476,-0.59346,41.4877,-89.5063,181.594,10,1,33.39,1017.39,-37.262,-0.0703125,0.339844,16.1406,3,3,3,3,0,-44.2784,140.082,148.13,771.676,8.06309
1949565,-0.023851,-0.18788,1.9986,-3.605,1.58375,-8.295,0.19754,-0.01876,-0.595,41.4877,-89.5063,181.594,10,1,33.39,1016.65,-30.7369,-0.162109,0.347656,16.1602,3,3,3,3,0,-44.2784,140.082,148.13,771.676,8.03408
1949575,-0.023851,-0.18788,1.9986,-3.605,1.58375,-8.295,0.19754,-0.01876,-0.595,41.4877,-89.5063,181.594,10,1,33.39,1016.65,-30.7369,-0.162109,0.347656,16.1602,3,3,3,3,0,-44.2784,140.082,148.13,771.676,8.03408
1949585,0.169214,0.111508,1.9986,-5.5125,0.91875,7.90125,0.20636,-0.03612,-0.5957,41.4877,-89.5063,181.77,10,1,33.39,1015.77,-22.9714,-0.128906,0.376953,16.1621,3,3,3,3,0,-36.4738,147.847,148.372,870.233,8.01475
1949595,0.169214,0.111508,1.9986,-5.5125,0.91875,7.90125,0.20636,-0.03612,-0.5957,41.4877,-89.5063,181.77,10,1,33.39,1015.77,-22.9714,-0.128906,0.376953,16.1621,3,3,3,3,0,-36.4738,147.847,148.372,870.233,8.01475
1949605,0.169214,0.111508,1.9986,-5.5125,0.91875,7.90125,0.20636,-0.03612,-0.5957,41.4877,-89.5063,181.77,10,1,33.39,1015.77,-22.9714,-0.128906,0.376953,16.1621,3,3,3,3,0,-36.4738,147.847,148.372,870.233,8.01475
1949615,0.099796,-0.102358,1.9986,-4.9525,8.225,0.5075,0.21994,-0.04984,-0.60004,41.4877,-89.5063,181.77,10,1,33.4,1015.16,-17.5857,-0.185547,0.287109,16.1797,3,3,3,3,0,-36.4738,147.847,148.372,870.233,8.00508
1949625,0.099796,-0.102358,1.9986,-4.9525,8.225,0.5075,0.21994,-0.04984,-0.60004,41.4877,-89.5063,181.77,10,1,33.4,1015.16,-17.5857,-0.185547,0.287109,16.1797,3,3,3,3,0,-36.4738,147.847,148.372,870.233,8.00508
1949635,0.099796,-0.102358,1.9986,-4.9525,8.225,0.5075,0.21994,-0.04984,-0.60004,41.4877,-89.5063,181.77,10,1,33.4,1014.51,-11.8415,-0.185547,0.287109,16.1797,3,3,3,3,0,-36.4738,147.847,148.372,870.233,8.00508
1949645,-0.013847,-0.052338,1.9986,-4.26125,5.4425,-1.40875,0.22918,-0.06594,-0.59738,41.4877,-89.5063,181.77,10,1,33.4,1014.51,-11.8415,-0.230469,0.291016,16.2012,3,3,3,3,0,-28.0953,155.776,148.638,971.145,8.03408
1949655,-0.013847,-0.052338,1.9986,-4.26125,5.4425,-1.40875,0.22918,-0.06594,-0.59738,41.4877,-89.5063,181.77,10,1,33.4,1014.51,-11.8415,-0.230469,0.291016,16.2012,3,3,3,3,0,-28.0953,155.776,148.638,971.145,8.03408
1949665,0.20008,-0.018788,1.9986,-6.41375,1.53125,9.86125,0.24822,-0.08946,-0.59388,41.4877,-89.5063,181.77,10,1,33.4,1014.09,-8.12748,-0.201172,0.341797,16.207,3,3,3,3,0,-28.0953,155.776,148.638,971.145,8.01475
1949675,0.20008,-0.018788,1.9986,-6.41375,1.53125,9.86125,0.24822,-0.08946,-0.59388,41.4877,-89.5063,181.77,10,1,33.4,1014.09,-8.12748,-0.201172,0.341797,16.207,3,3,3,3,0,-28.0953,155.776,148.638,971.145,8.01475
1949685,0.20008,-0.018788,1.9986,-6.41375,1.53125,9.86125,0.24822,-0.08946,-0.59388,41.4877,-89.5063,181.77,10,1,33.4,1014.09,-8.12748,-0.201172,0.341797,16.207,3,3,3,3,0,-28.0953,155.776,148.638,971.145,8.01475
1949695,0.101016,-0.191845,1.9986,-4.64625,4.27875,-2.0475,0.28238,-0.10024,-0.59052,41.4877,-89.5063,181.77,10,1,33.4,1013.78,-5.38638,-0.222656,0.244141,16.1992,3,3,3,3,0,-17.3054,165.635,148.599,1077.79,8.03408
1949705,0.101016,-0.191845,1.9986,-4.64625,4.27875,-2.0475,0.28238,-0.10024,-0.59052,41.4877,-89.5063,181.77,10,1,33.4,1013.78,-5.38638,-0.222656,0.244141,16.1992,3,3,3,3,0,-17.3054,165.635,148.599,1077.79,8.03408
1949715,0.154086,0.256017,1.9986,-4.4975,1.855,-1.6275,0.32746,-0.11732,-0.6041,41.4877,-89.5063,181.77,10,1,33.38,1013.41,-2.11205,-0.222656,0.244141,16.1992,3,3,3,3,0,-17.3054,165.635,148.599,1077.79,8.03408
1949725,0.154086,0.256017,1.9986,-4.4975,1.855,-1.6275,0.32746,-0.11732,-0.6041,41.4877,-89.5063,181.77,10,1,33.38,1013.41,-2.11205,-0.222656,0.244141,16.1992,3,3,3,3,0,-17.3054,165.635,148.599,1077.79,8.03408
1949735,0.154086,0.256017,1.9986,-4.4975,1.855,-1.6275,0.32746,-0.11732,-0.6041,41.4877,-89.5063,181.77,10,1,33.38,1013.41,-2.11205,-0.21875,0.234375,16.1836,3,3,3,3,0,-17.3054,165.635,148.599,1077.79,8.03408
1949745,0.154086,0.256017,1.9986,-4.4975,1.855,-1.6275,0.32746,-0.11732,-0.6041,41.4877,-89.5063,181.77,10,1,33.38,1013.41,-2.11205,-0.21875,0.234375,16.1836,3,3,3,3,0,-17.3054,165.635,148.599,1077.79,8.03408
1949755,0.12383,0.17141,1.9986,-4.095,0.525,-4.6375,0.35896,-0.1162,-0.60382,41.4877,-89.5063,181.77,10,1,33.38,1013.08,0.808183,-0.25,0.207031,16.166,3,3,3,3,0,-8.0911,173.541,148.171,1214.89,8.03408
1949765,0.12383,0.17141,1.9986,-4.095,0.525,-4.6375,0.35896,-0.1162,-0.60382,41.4877,-89.5063,181.77,10,1,33.38,1013.08,0.808183,-0.25,0.207031,16.166,3,3,3,3,0,-8.0911,173.541,148.171,1214.89,8.03408
1949775,0.12383,0.17141,1.9986,-4.095,0.525,-4.6375,0.35896,-0.1162,-0.60382,41.4877,-89.5063,181.77,10,1,33.38,1013.08,0.808183,-0.25,0.207031,16.166,3,3,3,3,0,-8.0911,173.541,148.171,1214.89,8.03408
1949785,0.10248,0.194712,1.9986,-3.6225,2.44125,-5.915,0.39536,-0.10878,-0.59262,41.4877,-89.5063,181.898,9,1,33.38,1012.53,5.67806,-0.304688,0.230469,16.1504,3,3,3,3,0,-8.0911,173.541,148.171,1214.89,8.07275
1949795,0.10248,0.194712,1.9986,-3.6225,2.44125,-5.915,0.39536,-0.10878,-0.59262,41.4877,-89.5063,181.898,9,1,33.38,1012.53,5.67806,-0.304688,0.230469,16.1504,3,3,3,3,0,-8.0911,173.541,148.171,1214.89,8.07275
1949805,0.10248,0.194712,1.9986,-3.6225,2.44125,-5.915,0.39536,-0.10878,-0.59262,41.4877,-89.5063,181.898,9,1,33.39,1011.72,12.8545,-0.304688,0.230469,16.1504,3,3,3,3,0,-8.0911,173.541,148.171,1214.89,8.07275
1949815,0.121939,0.188063,1.9986,-3.75375,0.8925,-4.2175,0.42728,-0.08946,-0.58478,41.4877,-89.5063,181.898,9,1,33.39,1011.72,12.8545,-0.341797,0.207031,16.1445,3,3,3,3,0,1.66238,181.46,148.173,1328.54,8.03408
1949825,0.121939,0.188063,1.9986,-3.75375,0.8925,-4.2175,0.42728,-0.08946,-0.58478,41.4877,-89.5063,181.898,9,1,33.39,1011.72,12.8545,-0.341797,0.207031,16.1445,3,3,3,3,0,1.66238,181.46,148.173,1328.54,8.03408
1949835,0.0427,0.227957,1.9986,-2.45875,-3.0625,-6.0375,0.45724,-0.0546,-0.57778,41.4877,-89.5063,181.898,9,1,33.39,1010.65,22.344,-0.390625,0.171875,16.1562,3,3,3,3,0,1.66238,181.46,148.173,1328.54,8.03408
1949845,0.0427,0.227957,1.9986,-2.45875,-3.0625,-6.0375,0.45724,-0.0546,-0.57778,41.4877,-89.5063,181.898,9,1,33.39,1010.65,22.344,-0.390625,0.171875,16.1562,3,3,3,3,0,1.66238,181.46,148.173,1328.54,8.03408
1949855,0.0427,0.227957,1.9986,-2.45875,-3.0625,-6.0375,0.45724,-0.0546,-0.57778,41.4877,-89.5063,181.898,9,1,33.39,1010.65,22.344,-0.390625,0.171875,16.1562,3,3,3,3,0,1.66238,181.46,148.173,1328.54,8.03408
1949865,0.103639,0.190991,1.9986,-2.68625,-2.835,-7.79625,0.47376,-0.007,-0.56686,41.4877,-89.5063,181.898,9,1,33.39,1009.22,35.0411,-0.443359,0.199219,16.166,3,3,3,3,0,12.1357,189.435,148.327,1445.38,8.04375
1949875,0.103639,0.190991,1.9986,-2.68625,-2.835,-7.79625,0.47376,-0.007,-0.56686,41.4877,-89.5063,181.898,9,1,33.39,1009.22,35.0411,-0.443359,0.199219,16.166,3,3,3,3,0,12.1357,189.435,148.327,1445.38,8.04375
1949885,0.188246,0.320128,1.9986,-0.2975,1.12,-24.29,0.48566,0.04942,-0.5642,41.4877,-89.5063,181.898,9,1,33.39,1007.53,50.0704,-0.470703,0.173828,16.1738,3,3,3,3,0,12.1357,189.435,148.327,1445.38,8.04375
1949895,0.188246,0.320128,1.9986,-0.2975,1.12,-24.29,0.48566,0.04942,-0.5642,41.4877,-89.5063,181.898,9,1,33.39,1007.53,50.0704,-0.470703,0.173828,16.1738,3,3,3,3,0,12.1357,189.435,148.327,1445.38,8.04375
1949905,0.188246,0.320128,1.9986,-0.2975,1.12,-24.29,0.48566,0.04942,-0.5642,41.4877,-89.5063,181.898,9,1,33.39,1007.53,50.0704,-0.470703,0.173828,16.1738,3,3,3,3,0,12.1357,189.435,148.327,1445.38,8.04375
1949915,0.168726,0.620492,1.9986,-4.27,-1.58375,1.015,0.46088,0.13342,-0.55356,41.4877,-89.5063,181.898,9,1,33.39,1005.43,68.7809,-0.521484,0.123047,16.1777,3,3,3,3,0,23.545,197.493,148.142,1566.01,8.05342
1949925,0.168726,0.620492,1.9986,-4.27,-1.58375,1.015,0.46088,0.13342,-0.55356,41.4877,-89.5063,181.898,9,1,33.39,1005.43,68.7809,-0.521484,0.123047,16.1777,3,3,3,3,0,23.545,197.493,148.142,1566.01,8.05342
1949935,0.168726,0.620492,1.9986,-4.27,-1.58375,1.015,0.46088,0.13342,-0.55356,41.4877,-89.5063,181.898,9,1,33.39,1002.94,91.0169,-0.521484,0.123047,16.1777,3,3,3,3,0,23.545,197.493,148.142,1566.01,8.05342
1949945,0.309941,0.543388,1.9986,-1.3125,-2.8875,-13.2475,0.42098,0.17444,-0.53102,41.4877,-89.5063,181.898,9,1,33.39,1002.94,91.0169,-0.730469,0.0488281,16.1504,3,3,3,3,0,23.545,197.493,148.142,1566.01,8.04375
1949955,0.309941,0.543388,1.9986,-1.3125,-2.8875,-13.2475,0.42098,0.17444,-0.53102,41.4877,-89.5063,181.898,9,1,33.39,1002.94,91.0169,-0.730469,0.0488281,16.1504,3,3,3,3,0,23.545,197.493,148.142,1566.01,8.04375
1949965,0.377468,0.920368,1.9986,-2.8875,2.10875,-8.6275,0.38024,0.20762,-0.5306,41.4877,-89.5063,181.898,9,1,33.39,1000.98,108.559,-0.791016,-0.0761719,16.1367,3,3,3,3,0,35.7152,205.597,148.054,1690.87,8.05342
1949975,0.377468,0.920368,1.9986,-2.8875,2.10875,-8.6275,0.38024,0.20762,-0.5306,41.4877,-89.5063,181.898,9,1,33.39,1000.98,108.559,-0.791016,-0.0761719,16.1367,3,3,3,3,0,35.7152,205.597,148.054,1690.87,8.05342
1949985,0.377468,0.920368,1.9986,-2.8875,2.10875,-8.6275,0.38024,0.20762,-0.5306,41.4877,-89.5063,181.898,9,1,33.39,1000.98,108.559,-0.791016,-0.0761719,16.1367,3,3,3,3,0,35.7152,205.597,148.054,1690.87,8.05342
1949995,0.485804,0.90524,1.9986,-3.15,2.17875,-10.8588,0.33054,0.23464,-0.52934,41.4877,-89.5063,182.057,10,1,33.39,999.43,122.455,-0.875,-0.210938,16.1426,3,3,3,3,0,35.7152,205.597,148.054,1690.87,8.03408
1950005,0.485804,0.90524,1.9986,-3.15,2.17875,-10.8588,0.33054,0.23464,-0.52934,41.4877,-89.5063,182.057,10,1,33.39,999.43,122.455,-0.875,-0.210938,16.1426,3,3,3,3,0,35.7152,205.597,148.054,1690.87,8.03408
1950015,0.35014,0.891576,1.9986,-3.45625,2.0475,-6.08125,0.27566,0.2471,-0.52598,41.4877,-89.5063,182.057,10,1,33.4,997.83,136.828,-0.875,-0.210938,16.1426,3,3,3,3,0,35.7152,205.597,148.054,1690.87,8.03408
1950025,0.35014,0.891576,1.9986,-3.45625,2.0475,-6.08125,0.27566,0.2471,-0.52598,41.4877,-89.5063,182.057,10,1,33.4,997.83,136.828,-1.18555,-0.398438,16.1895,3,3,3,3,0,49.3604,214.35,148.592,1819.1,8.02441
1950035,0.35014,0.891576,1.9986,-3.45625,2.0475,-6.08125,0.27566,0.2471,-0.52598,41.4877,-89.5063,182.057,10,1,33.4,997.83,136.828,-1.18555,-0.398438,16.1895,3,3,3,3,0,49.3604,214.35,148.592,1819.1,8.02441
1950045,0.393999,0.796111,1.9986,-5.95875,1.085,5.52125,0.21896,0.23716,-0.53088,41.4877,-89.5063,182.057,10,1,33.4,996.58,148.07,-1.22852,-0.40625,16.2051,3,3,3,3,0,49.3604,214.35,148.592,1819.1,8.01475
1950055,0.393999,0.796111,1.9986,-5.95875,1.085,5.52125,0.21896,0.23716,-0.53088,41.4877,-89.5063,182.057,10,1,33.4,996.58,148.07,-1.22852,-0.40625,16.2051,3,3,3,3,0,49.3604,214.35,148.592,1819.1,8.01475
1950065,0.393999,0.796111,1.9986,-5.95875,1.085,5.52125,0.21896,0.23716,-0.53088,41.4877,-89.5063,182.057,10,1,33.4,996.58,148.07,-1.22852,-0.40625,16.2051,3,3,3,3,0,49.3604,214.35,148.592,1819.1,8.01475
1950075,0.521489,0.643428,1.9986,-2.8875,-0.28,-13.93,0.15988,0.20594,-0.53942,41.4877,-89.5063,182.057,10,1,33.4,996.58,148.07,-1.23633,-0.412109,16.2031,3,3,3,3,0,64.9578,224.407,148.788,1960.28,8.05342
1950085,0.521489,0.643428,1.9986,-2.8875,-0.28,-13.93,0.15988,0.20594,-0.53942,41.4877,-89.5063,182.057,10,1,33.4,996.58,148.07,-1.23633,-0.412109,16.2031,3,3,3,3,0,64.9578,224.407,148.788,1960.28,8.05342
1950095,0.521489,0.643428,1.9986,-2.8875,-0.28,-13.93,0.15988,0.20594,-0.53942,41.4877,-89.5063,182.057,10,1,33.4,998.13,134.132,-1.23633,-0.412109,16.2031,3,3,3,3,0,64.9578,224.407,148.788,1960.28,8.05342
1950105,0.358558,0.898713,1.9986,-2.835,0.44625,-5.3725,0.11158,0.15442,-0.55216,41.4877,-89.5063,182.057,10,1,33.4,998.13,134.132,-1.21094,-0.46875,16.2207,3,3,3,3,0,64.9578,224.407,148.788,1960.28,8.03408
1950115,0.358558,0.898713,1.9986,-2.835,0.44625,-5.3725,0.11158,0.15442,-0.55216,41.4877,-89.5063,182.057,10,1,33.4,998.13,134.132,-1.21094,-0.46875,16.2207,3,3,3,3,0,64.9578,224.407,148.788,1960.28,8.03408
1950125,0.3843,0.428464,1.9986,-0.83125,-1.65375,-19.8013,0.08974,0.04592,-0.57162,41.4877,-89.5063,182.057,10,1,33.38,1000.6,111.961,-1.21094,-0.46875,16.2207,3,3,3,3,0,64.9578,224.407,148.788,1960.28,8.05342
1950135,0.3843,0.428464,1.9986,-0.83125,-1.65375,-19.8013,0.08974,0.04592,-0.57162,41.4877,-89.5063,182.057,10,1,33.38,1000.6,111.961,-1.21094,-0.46875,16.2207,3,3,3,3,0,64.9578,224.407,148.788,1960.28,8.05342
1950145,0.3843,0.428464,1.9986,-0.83125,-1.65375,-19.8013,0.08974,0.04592,-0.57162,41.4877,-89.5063,182.057,10,1,33.38,1000.6,111.961,-1.27148,-0.320312,16.1992,3,3,3,3,0,77.0048,232.059,148.314,2124.99,8.05342
1950155,0.3843,0.428464,1.9986,-0.83125,-1.65375,-19.8013,0.08974,0.04592,-0.57162,41.4877,-89.5063,182.057,10,1,33.38,1000.6,111.961,-1.27148,-0.320312,16.1992,3,3,3,3,0,77.0048,232.059,148.314,2124.99,8.05342
1950165,0.210999,0.18544,1.9986,-4.6375,4.64625,-4.90875,0.12362,-0.07728,-0.581,41.4877,-89.5063,182.057,10,1,33.38,1001.86,100.675,-1.20703,-0.222656,16.1641,3,3,3,3,0,77.0048,232.059,148.314,2124.99,8.06309
1950175,0.210999,0.18544,1.9986,-4.6375,4.64625,-4.90875,0.12362,-0.07728,-0.581,41.4877,-89.5063,182.057,10,1,33.38,1001.86,100.675,-1.20703,-0.222656,16.1641,3,3,3,3,0,77.0048,232.059,148.314,2124.99,8.06309
1950185,0.210999,0.18544,1.9986,-4.6375,4.64625,-4.90875,0.12362,-0.07728,-0.581,41.4877,-89.5063,182.057,10,1,33.38,1002.61,93.9652,-1.20703,-0.222656,16.1641,3,3,3,3,0,77.0048,232.059,148.314,2124.99,8.06309
1950195,0.698145,-0.12871,1.9986,-1.40875,5.71375,-14.245,0.18032,-0.12978,-0.59248,41.4877,-89.5063,182.22,10,1,33.38,1002.61,93.9652,-0.898438,-0.212891,16.084,3,3,3,3,0,89.0117,239.593,147.462,2252.18,8.04375
1950205,0.698145,-0.12871,1.9986,-1.40875,5.71375,-14.245,0.18032,-0.12978,-0.59248,41.4877,-89.5063,182.22,10,1,33.38,1002.61,93.9652,-0.898438,-0.212891,16.084,3,3,3,3,0,89.0117,239.593,147.462,2252.18,8.04375
1950215,0.413702,-0.343979,1.9986,-4.83,1.68,-3.5,0.26334,-0.15876,-0.59192,41.4877,-89.5063,182.22,10,1,33.38,1003.27,88.0641,-0.742188,-0.324219,16.0723,3,3,3,3,0,89.0117,239.593,147.462,2252.18,8.05342
1950225,0.413702,-0.343979,1.9986,-4.83,1.68,-3.5,0.26334,-0.15876,-0.59192,41.4877,-89.5063,182.22,10,1,33.38,1003.27,88.0641,-0.742188,-0.324219,16.0723,3,3,3,3,0,89.0117,239.593,147.462,2252.18,8.05342
1950235,0.413702,-0.343979,1.9986,-4.83,1.68,-3.5,0.26334,-0.15876,-0.59192,41.4877,-89.5063,182.22,10,1,33.38,1003.27,88.0641,-0.742188,-0.324219,16.0723,3,3,3,3,0,89.0117,239.593,147.462,2252.18,8.05342
1950245,0.669536,-0.231312,1.9986,-4.47125,-1.07625,-2.4675,0.33124,-0.14126,-0.59612,41.4877,-89.5063,182.22,10,1,33.39,1004.23,79.4902,-0.541016,-0.410156,16.0586,3,3,3,3,0,101.37,247.309,147.378,2379.14,8.04375
1950255,0.669536,-0.231312,1.9986,-4.47125,-1.07625,-2.4675,0.33124,-0.14126,-0.59612,41.4877,-89.5063,182.22,10,1,33.39,1004.23,79.4902,-0.541016,-0.410156,16.0586,3,3,3,3,0,101.37,247.309,147.378,2379.14,8.04375
1950265,0.744932,0.29768,1.9986,-3.75375,2.56375,-3.87625,0.38024,-0.09436,-0.59892,41.4877,-89.5063,182.22,10,1,33.39,1005.21,70.7433,-0.433594,-0.703125,16.0742,3,3,3,3,0,101.37,247.309,147.378,2379.14,8.03408
1950275,0.744932,0.29768,1.9986,-3.75375,2.56375,-3.87625,0.38024,-0.09436,-0.59892,41.4877,-89.5063,182.22,10,1,33.39,1005.21,70.7433,-0.433594,-0.703125,16.0742,3,3,3,3,0,101.37,247.309,147.378,2379.14,8.03408
1950285,0.744932,0.29768,1.9986,-3.75375,2.56375,-3.87625,0.38024,-0.09436,-0.59892,41.4877,-89.5063,182.22,10,1,33.39,1005.21,70.7433,-0.433594,-0.703125,16.0742,3,3,3,3,0,101.37,247.309,147.378,2379.14,8.03408
1950295,0.526247,0.214171,1.9986,-3.5,2.54625,-5.18,0.41244,-0.03808,-0.5971,41.4877,-89.5063,182.22,10,1,33.39,1004.03,81.2764,-0.583984,-0.820312,16.084,3,3,3,3,0,114.505,255.088,147.301,2510.7,8.06309
1950305,0.526247,0.214171,1.9986,-3.5,2.54625,-5.18,0.41244,-0.03808,-0.5971,41.4877,-89.5063,182.22,10,1,33.39,1004.03,81.2764,-0.583984,-0.820312,16.084,3,3,3,3,0,114.505,255.088,147.301,2510.7,8.06309
1950315,0.526247,0.214171,1.9986,-3.5,2.54625,-5.18,0.41244,-0.03808,-0.5971,41.4877,-89.5063,182.22,10,1,33.39,1001.39,104.887,-0.583984,-0.820312,16.084,3,3,3,3,0,114.505,255.088,147.301,2510.7,8.06309
1950325,0.538386,0.223748,1.9986,-3.85875,-3.05375,-14.6912,0.39704,0.03528,-0.60144,41.4877,-89.5063,182.22,10,1,33.39,1001.39,104.887,-0.748047,-0.630859,16.0664,3,3,3,3,0,114.505,255.088,147.301,2510.7,8.07275
1950335,0.538386,0.223748,1.9986,-3.85875,-3.05375,-14.6912,0.39704,0.03528,-0.60144,41.4877,-89.5063,182.22,10,1,33.39,1001.39,104.887,-0.748047,-0.630859,16.0664,3,3,3,3,0,114.505,255.088,147.301,2510.7,8.07275
1950345,0.283101,0.296094,1.9986,-3.35125,5.99375,-2.79125,0.35224,0.0826,-0.58968,41.4877,-89.5063,182.22,10,1,33.39,998.95,126.764,-0.775391,-0.517578,16.041,3,3,3,3,0,128.488,262.927,146.903,2645.35,8.03408
1950355,0.283101,0.296094,1.9986,-3.35125,5.99375,-2.79125,0.35224,0.0826,-0.58968,41.4877,-89.5063,182.22,10,1,33.39,998.95,126.764,-0.775391,-0.517578,16.041,3,3,3,3,0,128.488,262.927,146.903,2645.35,8.03408
1950365,0.283101,0.296094,1.9986,-3.35125,5.99375,-2.79125,0.35224,0.0826,-0.58968,41.4877,-89.5063,182.22,10,1,33.39,998.95,126.764,-0.775391,-0.517578,16.041,3,3,3,3,0,128.488,262.927,146.903,2645.35,8.03408
1950375,-0.378017,-0.032025,1.9986,-4.795,-3.5875,-5.67,0.29848,0.11424,-0.58226,41.4877,-89.5063,182.22,10,1,33.4,997.05,143.841,-0.806641,-0.337891,16.0215,3,3,3,3,0,128.488,262.927,146.903,2645.35,8.03408
1950385,-0.378017,-0.032025,1.9986,-4.795,-3.5875,-5.67,0.29848,0.11424,-0.58226,41.4877,-89.5063,182.22,10,1,33.4,997.05,143.841,-0.806641,-0.337891,16.0215,3,3,3,3,0,128.488,262.927,146.903,2645.35,8.03408
1950395,-0.153354,-0.416569,1.9986,-6.92125,-4.445,13.79,0.23744,0.11592,-0.58828,41.4877,-89.5063,182.405,10,1,33.4,996.07,152.659,-0.576172,0.447266,15.9805,3,3,3,3,0,142.573,270.587,146.4,2783.29,8.03408
1950405,-0.153354,-0.416569,1.9986,-6.92125,-4.445,13.79,0.23744,0.11592,-0.58828,41.4877,-89.5063,182.405,10,1,33.4,996.07,152.659,-0.576172,0.447266,15.9805,3,3,3,3,0,142.573,270.587,146.4,2783.29,8.03408
1950415,-0.153354,-0.416569,1.9986,-6.92125,-4.445,13.79,0.23744,0.11592,-0.58828,41.4877,-89.5063,182.405,10,1,33.4,996.07,152.659,-0.576172,0.447266,15.9805,3,3,3,3,0,142.573,270.587,146.4,2783.29,8.03408
1950425,0.000732,-0.3355,1.9986,-5.9325,8.79375,0.49875,0.18186,0.09268,-0.58464,41.4877,-89.5063,182.405,10,1,33.4,995.77,155.361,-0.322266,0.583984,15.9688,3,3,3,3,0,142.573,270.587,146.4,2783.29,8.03408
1950435,0.000732,-0.3355,1.9986,-5.9325,8.79375,0.49875,0.18186,0.09268,-0.58464,41.4877,-89.5063,182.405,10,1,33.4,995.77,155.361,-0.322266,0.583984,15.9688,3,3,3,3,0,142.573,270.587,146.4,2783.29,8.03408
1950445,0.000732,-0.3355,1.9986,-5.9325,8.79375,0.49875,0.18186,0.09268,-0.58464,41.4877,-89.5063,182.405,10,1,33.4,995.45,158.243,-0.322266,0.583984,15.9688,3,3,3,3,0,142.573,270.587,146.4,2783.29,8.03408
1950455,0.064416,-0.076616,1.9986,-2.40625,0.30625,-24.3687,0.13776,0.01414,-0.58072,41.4877,-89.5063,182.405,10,1,33.4,995.45,158.243,-0.195312,0.525391,15.9746,3,3,3,3,0,157.148,278.362,146.698,2919.38,8.05342
1950465,0.064416,-0.076616,1.9986,-2.40625,0.30625,-24.3687,0.13776,0.01414,-0.58072,41.4877,-89.5063,182.405,10,1,33.4,995.45,158.243,-0.195312,0.525391,15.9746,3,3,3,3,0,157.148,278.362,146.698,2919.38,8.05342
1950475,-0.115351,-0.222528,1.9986,-5.45125,1.7325,3.92,0.133,-0.04004,-0.57316,41.4877,-89.5063,182.405,10,1,33.4,995.32,159.414,-0.222656,0.402344,16.0098,3,3,3,3,0,157.148,278.362,146.698,2919.38,8.03408
1950485,-0.115351,-0.222528,1.9986,-5.45125,1.7325,3.92,0.133,-0.04004,-0.57316,41.4877,-89.5063,182.405,10,1,33.4,995.32,159.414,-0.222656,0.402344,16.0098,3,3,3,3,0,157.148,278.362,146.698,2919.38,8.03408
1950495,-0.115351,-0.222528,1.9986,-5.45125,1.7325,3.92,0.133,-0.04004,-0.57316,41.4877,-89.5063,182.405,10,1,33.4,995.32,159.414,-0.222656,0.402344,16.0098,3,3,3,3,0,157.148,278.362,146.698,2919.38,8.03408
1950505,0.075823,-0.206241,1.9986,-4.08625,5.31125,-4.61125,0.13706,-0.09548,-0.5705,41.4877,-89.5063,182.405,10,1,33.4,995.45,158.243,-0.0742188,0.525391,16.0098,3,3,3,3,0,175.797,288.144,146.731,3058.45,8.02441
1950515,0.075823,-0.206241,1.9986,-4.08625,5.31125,-4.61125,0.13706,-0.09548,-0.5705,41.4877,-89.5063,182.405,10,1,33.4,995.45,158.243,-0.0742188,0.525391,16.0098,3,3,3,3,0,175.797,288.144,146.731,3058.45,8.02441
1950525,0.261812,-0.319396,1.9986,-3.29875,1.46125,-7.4725,0.18928,-0.15596,-0.58422,41.4877,-89.5063,182.405,10,1,33.38,995.07,161.657,-0.0742188,0.525391,16.0098,3,3,3,3,0,175.797,288.144,146.731,3058.45,8.02441
1950535,0.261812,-0.319396,1.9986,-3.29875,1.46125,-7.4725,0.18928,-0.15596,-0.58422,41.4877,-89.5063,182.405,10,1,33.38,995.07,161.657,-0.0742188,0.525391,16.0098,3,3,3,3,0,175.797,288.144,146.731,3058.45,8.06309
1950545,0.261812,-0.319396,1.9986,-3.29875,1.46125,-7.4725,0.18928,-0.15596,-0.58422,41.4877,-89.5063,182.405,10,1,33.38,995.07,161.657,0,0.414062,16.0215,3,3,3,3,0,175.797,288.144,146.731,3058.45,8.06309
1950555,0.261812,-0.319396,1.9986,-3.29875,1.46125,-7.4725,0.18928,-0.15596,-0.58422,41.4877,-89.5063,182.405,10,1,33.38,995.07,161.657,0,0.414062,16.0215,3,3,3,3,0,175.797,288.144,146.731,3058.45,8.06309
1950565,-0.188307,-0.260531,1.9986,-3.84125,0.455,-5.81,0.24136,-0.1904,-0.57596,41.4877,-89.5063,182.405,10,1,33.39,994.93,162.923,0,0.414062,16.0215,3,3,3,3,0,175.797,288.144,146.731,3058.45,8.06309
1950575,-0.188307,-0.260531,1.9986,-3.84125,0.455,-5.81,0.24136,-0.1904,-0.57596,41.4877,-89.5063,182.405,10,1,33.39,994.93,162.923,-0.119141,0.359375,16.0117,3,3,3,3,0,190.811,295.831,146.615,3233.93,8.07275
1950585,-0.188307,-0.260531,1.9986,-3.84125,0.455,-5.81,0.24136,-0.1904,-0.57596,41.4877,-89.5063,182.405,10,1,33.39,994.93,162.923,-0.119141,0.359375,16.0117,3,3,3,3,0,190.811,295.831,146.615,3233.93,8.07275
1950595,0.250466,-0.150792,1.9986,-3.2725,1.49625,-16.1,0.28854,-0.2044,-0.5768,41.4877,-89.5063,182.583,10,1,33.39,994.71,164.907,-0.119141,0.416016,15.9961,3,3,3,3,0,190.811,295.831,146.615,3233.93,8.04375
1950605,0.250466,-0.150792,1.9986,-3.2725,1.49625,-16.1,0.28854,-0.2044,-0.5768,41.4877,-89.5063,182.583,10,1,33.39,994.71,164.907,-0.119141,0.416016,15.9961,3,3,3,3,0,190.811,295.831,146.615,3233.93,8.04375
1950615,0.250466,-0.150792,1.9986,-3.2725,1.49625,-16.1,0.28854,-0.2044,-0.5768,41.4877,-89.5063,182.583,10,1,33.39,994.71,164.907,-0.119141,0.416016,15.9961,3,3,3,3,0,190.811,295.831,146.615,3233.93,8.04375
1950625,-0.250588,-0.104127,1.9986,-3.6575,12.5475,-13.825,0.34454,-0.19992,-0.5712,41.4877,-89.5063,182.583,10,1,33.39,994.57,166.169,-0.0878906,0.388672,15.9707,3,3,3,3,0,205.981,303.453,146.075,3371.64,8.06309
1950635,-0.250588,-0.104127,1.9986,-3.6575,12.5475,-13.825,0.34454,-0.19992,-0.5712,41.4877,-89.5063,182.583,10,1,33.39,994.57,166.169,-0.0878906,0.388672,15.9707,3,3,3,3,0,205.981,303.453,146.075,3371.64,8.06309
1950645,0.122854,0.356362,1.9986,-1.84625,-2.5725,-12.565,0.39284,-0.17878,-0.56728,41.4877,-89.5063,182.583,10,1,33.39,994.61,165.809,-0.255859,0.292969,15.9355,3,3,3,3,0,205.981,303.453,146.075,3371.64,8.07275
1950655,0.122854,0.356362,1.9986,-1.84625,-2.5725,-12.565,0.39284,-0.17878,-0.56728,41.4877,-89.5063,182.583,10,1,33.39,994.61,165.809,-0.255859,0.292969,15.9355,3,3,3,3,0,205.981,303.453,146.075,3371.64,8.07275
1950665,0.122854,0.356362,1.9986,-1.84625,-2.5725,-12.565,0.39284,-0.17878,-0.56728,41.4877,-89.5063,182.583,10,1,33.39,994.61,165.809,-0.255859,0.292969,15.9355,3,3,3,3,0,205.981,303.453,146.075,3371.64,8.07275
1950675,-0.305732,0.359778,1.9986,-1.39125,2.17,-21.945,0.43722,-0.14308,-0.56378,41.4877,-89.5063,182.583,10,1,33.39,994.54,166.44,-0.369141,0.365234,15.9062,3,3,3,3,0,221.291,310.997,145.402,3507.66,8.04375
1950685,-0.305732,0.359778,1.9986,-1.39125,2.17,-21.945,0.43722,-0.14308,-0.56378,41.4877,-89.5063,182.583,10,1,33.39,994.54,166.44,-0.369141,0.365234,15.9062,3,3,3,3,0,221.291,310.997,145.402,3507.66,8.04375
1950695,-0.305732,0.359778,1.9986,-1.39125,2.17,-21.945,0.43722,-0.14308,-0.56378,41.4877,-89.5063,182.583,10,1,33.39,994.58,166.079,-0.369141,0.365234,15.9062,3,3,3,3,0,221.291,310.997,145.402,3507.66,8.04375
1950705,-0.036905,-0.352763,1.9986,-3.4825,5.76625,-0.93625,0.47236,-0.0679,-0.56476,41.4877,-89.5063,182.583,10,1,33.39,994.58,166.079,-0.433594,0.466797,15.8652,3,3,3,3,0,221.291,310.997,145.402,3507.66,8.03408
1950715,-0.036905,-0.352763,1.9986,-3.4825,5.76625,-0.93625,0.47236,-0.0679,-0.56476,41.4877,-89.5063,182.583,10,1,33.39,994.58,166.079,-0.433594,0.466797,15.8652,3,3,3,3,0,221.291,310.997,145.402,3507.66,8.03408
1950725,-0.122366,0.219173,1.9986,-3.2375,3.80625,-6.265,0.47404,-0.00714,-0.56532,41.4877,-89.5063,182.583,10,1,33.4,994.53,166.536,-0.353516,0.53125,15.7891,3,3,3,3,0,236.778,318.456,144.272,3641.08,8.05342
1950735,-0.122366,0.219173,1.9986,-3.2375,3.80625,-6.265,0.47404,-0.00714,-0.56532,41.4877,-89.5063,182.583,10,1,33.4,994.53,166.536,-0.353516,0.53125,15.7891,3,3,3,3,0,236.778,318.456,144.272,3641.08,8.05342
1950745,-0.122366,0.219173,1.9986,-3.2375,3.80625,-6.265,0.47404,-0.00714,-0.56532,41.4877,-89.5063,182.583,10,1,33.4,994.53,166.536,-0.353516,0.53125,15.7891,3,3,3,3,0,236.778,318.456,144.272,3641.08,8.05342
1950755,-0.032269,0.146583,1.9986,-4.33125,2.45875,-0.91,0.45038,0.04718,-0.54824,41.4877,-89.5063,182.583,10,1,33.4,994.26,168.971,-0.335938,0.607422,15.7441,3,3,3,3,0,236.778,318.456,144.272,3641.08,8.05342
1950765,-0.032269,0.146583,1.9986,-4.33125,2.45875,-0.91,0.45038,0.04718,-0.54824,41.4877,-89.5063,182.583,10,1,33.4,994.26,168.971,-0.335938,0.607422,15.7441,3,3,3,3,0,236.778,318.456,144.272,3641.08,8.05342
1950775,-0.062708,0.041358,1.9986,-4.13,4.80375,-5.24125,0.42448,0.08806,-0.5502,41.4877,-89.5063,182.583,10,1,33.4,993.65,174.474,-0.332031,0.625,15.6895,3,3,3,3,0,252.559,325.826,142.616,3772.15,8.00508
1950785,-0.062708,0.041358,1.9986,-4.13,4.80375,-5.24125,0.42448,0.08806,-0.5502,41.4877,-89.5063,182.583,10,1,33.4,993.65,174.474,-0.332031,0.625,15.6895,3,3,3,3,0,252.559,325.826,142.616,3772.15,8.00508
1950795,-0.062708,0.041358,1.9986,-4.13,4.80375,-5.24125,0.42448,0.08806,-0.5502,41.4877,-89.5063,182.583,10,1,33.4,993.65,174.474,-0.332031,0.625,15.6895,3,3,3,3,0,252.559,325.826,142.616,3772.15,8.00508
1950805,-0.005734,0.031537,1.9986,-3.59625,-4.445,-5.76625,0.39578,0.12446,-0.5621,41.4877,-89.5063,182.766,10,1,33.4,993.15,178.988,-0.195312,0.572266,15.5684,3,3,3,3,0,252.559,325.826,142.616,3772.15,8.03408
1950815,-0.005734,0.031537,1.9986,-3.59625,-4.445,-5.76625,0.39578,0.12446,-0.5621,41.4877,-89.5063,182.766,10,1,33.4,993.15,178.988,-0.195312,0.572266,15.5684,3,3,3,3,0,252.559,325.826,142.616,3772.15,8.03408
1950825,-0.005734,0.031537,1.9986,-3.59625,-4.445,-5.76625,0.39578,0.12446,-0.5621,41.4877,-89.5063,182.766,10,1,33.4,992.5,184.859,-0.195312,0.572266,15.5684,3,3,3,3,0,252.559,325.826,142.616,3772.15,8.03408
1950835,0.124196,-0.358192,1.9986,-3.59625,3.1675,-5.5825,0.36554,0.14952,-0.56028,41.4877,-89.5063,182.766,10,1,33.4,992.5,184.859,-0.15625,0.519531,15.5,3,3,3,3,0,268.644,333.105,141.187,3900.55,8.00508
1950845,0.124196,-0.358192,1.9986,-3.59625,3.1675,-5.5825,0.36554,0.14952,-0.56028,41.4877,-89.5063,182.766,10,1,33.4,992.5,184.859,-0.15625,0.519531,15.5,3,3,3,3,0,268.644,333.105,141.187,3900.55,8.00508
1950855,-0.002379,-0.408761,1.9986,-4.34,5.08375,-4.445,0.32536,0.16534,-0.56238,41.4877,-89.5063,182.766,10,1,33.4,991.91,190.191,-0.0761719,0.425781,15.4258,3,3,3,3,0,268.644,333.105,141.187,3900.55,8.05342
1950865,-0.002379,-0.408761,1.9986,-4.34,5.08375,-4.445,0.32536,0.16534,-0.56238,41.4877,-89.5063,182.766,10,1,33.4,991.91,190.191,-0.0761719,0.425781,15.4258,3,3,3,3,0,268.644,333.105,141.187,3900.55,8.05342
1950875,-0.002379,-0.408761,1.9986,-4.34,5.08375,-4.445,0.32536,0.16534,-0.56238,41.4877,-89.5063,182.766,10,1,33.4,991.91,190.191,-0.0761719,0.425781,15.4258,3,3,3,3,0,268.644,333.105,141.187,3900.55,8.05342
1950885,0.038857,-0.209474,1.9986,-4.99625,4.85625,5.25875,0.29372,0.17108,-0.56938,41.4877,-89.5063,182.766,10,1,33.4,991.28,195.889,-0.0292969,0.363281,15.248,3,3,3,3,0,290.984,342.65,137.827,4026.47,8.00508
1950895,0.038857,-0.209474,1.9986,-4.99625,4.85625,5.25875,0.29372,0.17108,-0.56938,41.4877,-89.5063,182.766,10,1,33.4,991.28,195.889,-0.0292969,0.363281,15.248,3,3,3,3,0,290.984,342.65,137.827,4026.47,8.00508
1950905,-0.001464,-0.315309,1.9986,-5.565,11.2,-3.57,0.26348,0.16436,-0.57428,41.4877,-89.5063,182.766,10,1,33.4,990.58,202.224,-0.0136719,0.220703,15.0684,3,3,3,3,0,290.984,342.65,137.827,4026.47,8.02441
1950915,-0.001464,-0.315309,1.9986,-5.565,11.2,-3.57,0.26348,0.16436,-0.57428,41.4877,-89.5063,182.766,10,1,33.4,990.58,202.224,-0.0136719,0.220703,15.0684,3,3,3,3,0,290.984,342.65,137.827,4026.47,8.02441
1950925,-0.001464,-0.315309,1.9986,-5.565,11.2,-3.57,0.26348,0.16436,-0.57428,41.4877,-89.5063,182.766,10,1,33.4,990.58,202.224,-0.0136719,0.220703,15.0684,3,3,3,3,0,290.984,342.65,137.827,4026.47,8.02441
1950935,0.118401,-0.052704,1.9986,-2.7475,14.3763,-11.2437,0.20244,0.12782,-0.59906,41.4877,-89.5063,182.766,10,1,33.38,989.53,211.721,-0.0136719,0.220703,15.0684,3,3,3,3,0,290.984,342.65,137.827,4026.47,8.06309
1950945,0.118401,-0.052704,1.9986,-2.7475,14.3763,-11.2437,0.20244,0.12782,-0.59906,41.4877,-89.5063,182.766,10,1,33.38,989.53,211.721,-0.0136719,0.220703,15.0684,3,3,3,3,0,290.984,342.65,137.827,4026.47,8.06309
1950955,0.118401,-0.052704,1.9986,-2.7475,14.3763,-11.2437,0.20244,0.12782,-0.59906,41.4877,-89.5063,182.766,10,1,33.38,989.53,211.721,-0.00585938,0.228516,14.9648,3,3,3,3,0,307.032,349.232,134.473,4191.09,8.06309
1950965,0.118401,-0.052704,1.9986,-2.7475,14.3763,-11.2437,0.20244,0.12782,-0.59906,41.4877,-89.5063,182.766,10,1,33.38,989.53,211.721,-0.00585938,0.228516,14.9648,3,3,3,3,0,307.032,349.232,134.473,4191.09,8.06309
1950975,0.383568,0.010187,1.9986,-4.62875,-1.11125,-2.24,0.17458,0.09408,-0.6006,41.4877,-89.5063,182.766,10,1,33.39,989.05,216.079,-0.138672,0.0117188,14.7148,3,3,3,3,0,307.032,349.232,134.473,4191.09,8.06309
1950985,0.383568,0.010187,1.9986,-4.62875,-1.11125,-2.24,0.17458,0.09408,-0.6006,41.4877,-89.5063,182.766,10,1,33.39,989.05,216.079,-0.138672,0.0117188,14.7148,3,3,3,3,0,307.032,349.232,134.473,4191.09,8.06309
1950995,0.383568,0.010187,1.9986,-4.62875,-1.11125,-2.24,0.17458,0.09408,-0.6006,41.4877,-89.5063,182.766,10,1,33.39,989.05,216.079,-0.138672,0.0117188,14.7148,3,3,3,3,0,307.032,349.232,134.473,4191.09,8.06309
